Time[s],RateRoll[°/s],RatePitch[°/s],RateYaw[°/s],AccX[m/s^2],AccY[m/s^2],AccZ[m/s^2]
0.66,-0.0,-0.04,0.03,-9.02,0.04,-3.86
0.77,0.03,0.01,0.05,-9.02,0.03,-3.86
0.89,0.01,0.03,0.02,-9.02,0.04,-3.87
1.0,0.01,-0.02,0.05,-9.02,0.01,-3.85
1.11,0.01,0.03,-0.01,-9.01,0.04,-3.85
1.23,-0.0,-0.05,0.0,-9.02,0.04,-3.83
1.34,0.01,-0.02,0.09,-9.02,0.04,-3.86
1.46,-0.0,-0.07,-0.06,-9.02,0.03,-3.85
1.57,0.01,-0.04,0.0,-9.0,0.05,-3.85
1.68,0.01,0.09,-0.1,-9.02,0.02,-3.85
1.8,0.03,-0.1,0.06,-9.02,0.03,-3.86
1.91,0.01,-0.04,0.14,-9.02,0.02,-3.82
2.03,-0.0,0.16,-0.07,-9.01,0.04,-3.85
2.14,-0.02,-0.02,-0.06,-9.02,0.02,-3.87
2.25,0.01,-0.02,0.08,-9.01,0.02,-3.85
2.37,0.04,-0.02,0.05,-9.02,0.03,-3.85
2.48,-0.02,-0.02,-0.03,-9.03,0.02,-3.85
2.6,-0.0,0.03,0.05,-9.02,0.01,-3.86
2.71,-0.03,-0.0,-0.06,-9.01,0.03,-3.85
2.82,-0.0,-0.0,-0.01,-9.01,0.02,-3.83
2.94,-0.06,0.03,-0.1,-9.01,0.03,-3.88
3.05,0.03,-0.02,0.09,-9.03,0.03,-3.87
3.17,0.01,0.07,-0.06,-9.02,0.04,-3.84
3.28,-0.03,-0.02,-0.03,-9.02,0.03,-3.85
3.39,-0.03,-0.11,0.08,-9.02,0.03,-3.87
3.51,-0.06,-0.02,-0.1,-9.02,0.03,-3.85
3.62,-0.02,-0.02,-0.06,-9.01,0.03,-3.86
3.74,0.04,-0.05,0.16,-9.02,0.03,-3.85
3.85,-0.06,-0.0,-0.17,-9.02,0.04,-3.84
3.96,0.06,-0.02,0.06,-9.02,0.03,-3.87
4.08,-0.05,-0.05,-0.03,-9.02,0.03,-3.85
4.19,-0.05,0.07,-0.12,-9.03,0.04,-3.85
4.3,0.01,-0.02,0.11,-9.02,0.04,-3.87
4.42,0.09,-0.02,0.19,-9.02,0.03,-3.84
4.53,0.01,-0.0,0.08,-9.03,0.03,-3.87
4.65,-0.0,0.09,0.03,-9.02,0.04,-3.86
4.76,-0.02,-0.13,0.17,-9.03,0.02,-3.86
4.88,0.01,-0.11,0.02,-9.03,0.04,-3.84
4.99,-0.0,0.01,-0.04,-9.02,0.05,-3.85
5.1,-0.03,0.01,-0.1,-9.02,0.03,-3.86
5.22,0.01,0.01,-0.01,-9.02,0.02,-3.86
5.33,0.04,-0.07,0.11,-9.02,0.04,-3.84
5.44,0.09,0.03,0.09,-9.02,0.04,-3.87
5.56,0.01,0.04,0.06,-9.01,0.02,-3.86
5.67,-0.03,0.06,-0.12,-9.03,0.02,-3.87
5.78,0.03,-0.0,0.03,-9.02,0.03,-3.85
5.9,0.07,0.03,0.17,-9.02,0.03,-3.84
6.01,-0.03,0.04,-0.12,-9.02,0.02,-3.86
6.13,0.01,-0.1,0.08,-9.02,0.03,-3.86
6.24,-0.05,-0.0,-0.07,-9.03,0.02,-3.84
6.35,-0.02,-0.04,0.0,-9.02,0.02,-3.87
6.47,-0.0,-0.02,0.0,-9.01,0.02,-3.85
6.58,0.04,0.01,0.11,-9.03,0.03,-3.84
6.7,0.01,-0.02,-0.06,-9.02,0.03,-3.85
6.81,-0.02,-0.0,-0.01,-9.03,0.03,-3.83
6.93,0.03,-0.05,0.05,-9.02,0.03,-3.86
7.04,-0.0,-0.0,0.0,-9.01,0.03,-3.87
7.15,-0.05,-0.0,-0.07,-9.03,0.03,-3.85
7.27,-0.03,0.04,-0.07,-9.01,0.02,-3.86
7.38,-0.0,0.01,0.0,-9.02,0.04,-3.86
7.49,-0.03,0.1,-0.06,-9.03,0.01,-3.86
7.61,0.07,-0.08,0.17,-9.01,0.03,-3.85
7.72,-0.03,0.03,-0.07,-9.02,0.02,-3.85
7.84,-0.02,0.03,0.06,-9.01,0.02,-3.85
7.95,-0.03,0.04,-0.1,-9.03,0.02,-3.87
8.06,0.03,0.03,0.05,-9.03,0.02,-3.86
8.18,-0.02,-0.05,0.08,-9.01,0.03,-3.86
8.29,0.01,-0.02,0.06,-9.03,0.02,-3.83
8.41,0.01,-0.0,-0.01,-9.02,0.04,-3.85
8.52,0.01,-0.05,-0.03,-9.03,0.03,-3.87
8.63,-0.03,0.04,-0.06,-9.01,0.04,-3.86
8.75,-0.03,0.04,-0.06,-9.02,0.03,-3.85
8.86,-0.0,-0.02,0.12,-9.02,0.03,-3.85
8.98,0.04,0.04,0.08,-9.01,0.04,-3.86
9.09,-0.0,0.06,-0.01,-9.02,0.03,-3.85
9.2,0.03,0.01,0.09,-9.02,0.02,-3.88
9.32,-0.0,0.03,0.02,-9.02,0.03,-3.85
9.43,-0.02,-0.04,-0.07,-9.03,0.01,-3.86
9.54,0.01,0.03,0.03,-9.02,0.03,-3.84
9.66,-0.05,-0.02,-0.04,-9.03,0.04,-3.86
9.77,-0.0,-0.05,-0.06,-9.01,0.03,-3.86
9.89,-0.05,0.04,-0.01,-9.01,0.02,-3.86
10.0,-0.05,0.04,-0.07,-9.02,0.03,-3.87
10.11,-0.11,-0.05,-0.13,-9.03,0.03,-3.87
10.23,-0.03,-0.02,-0.06,-9.01,0.04,-3.86
10.34,-0.02,0.06,0.0,-9.03,0.04,-3.87
10.46,-0.0,0.03,0.05,-9.01,0.03,-3.86
10.57,-0.02,0.01,0.02,-9.01,0.03,-3.86
10.69,-0.02,0.04,-0.1,-9.02,0.05,-3.85
10.8,-0.05,-0.02,-0.12,-9.02,0.03,-3.87
10.91,0.03,-0.02,0.05,-9.01,0.02,-3.85
11.03,0.01,-0.02,0.08,-9.02,0.02,-3.86
11.14,-0.02,-0.05,0.0,-9.03,0.02,-3.85
11.26,-0.0,-0.07,0.02,-9.02,0.03,-3.84
11.37,-0.03,0.09,-0.12,-9.01,0.03,-3.87
11.48,0.01,-0.04,0.14,-9.03,0.03,-3.84
11.6,-0.05,0.04,-0.09,-9.03,0.02,-3.86
11.71,0.01,0.03,0.09,-9.02,0.04,-3.89
11.83,0.04,-0.04,0.12,-9.02,0.03,-3.87
11.94,0.01,0.01,0.05,-9.02,0.03,-3.86
12.05,0.04,0.04,0.03,-9.01,0.03,-3.88
12.17,-0.06,0.03,-0.07,-9.01,0.02,-3.85
12.28,0.07,-0.13,0.2,-9.01,0.03,-3.85
12.4,-0.0,-0.02,0.05,-9.02,0.02,-3.85
12.51,-0.03,-0.0,-0.04,-9.02,0.02,-3.86
12.62,-0.05,-0.0,-0.18,-9.02,0.02,-3.86
12.74,-0.0,0.04,-0.07,-9.01,0.03,-3.85
12.85,-0.0,0.03,0.03,-9.03,0.02,-3.84
12.97,0.01,-0.04,0.09,-9.02,0.03,-3.85
13.08,-0.02,-0.04,0.0,-9.01,0.03,-3.88
13.19,0.03,-0.0,0.05,-9.02,0.04,-3.85
13.31,0.01,-0.0,0.05,-9.02,0.03,-3.86
13.42,-0.0,0.01,0.0,-9.02,0.02,-3.86
13.54,-0.02,0.01,-0.03,-9.02,0.03,-3.83
13.65,-0.02,-0.0,0.0,-9.03,0.03,-3.85
13.77,0.14,0.1,0.17,-9.03,0.02,-3.86
13.88,0.01,0.13,-0.03,-9.01,0.01,-3.86
13.99,0.17,-0.16,0.34,-9.03,0.02,-3.84
14.11,-0.0,-0.05,0.05,-9.03,0.02,-3.84
14.22,0.01,0.04,0.06,-9.01,0.03,-3.86
14.34,0.03,-0.04,0.11,-9.01,0.03,-3.86
14.45,23.63,33.08,65.21,-9.52,2.29,-5.5
14.56,29.51,-15.45,-19.51,-10.45,-0.15,-4.19
14.68,22.24,-42.98,-32.59,-9.24,-1.02,-3.18
14.79,20.14,-70.71,-25.51,-9.01,-1.31,-2.09
14.91,22.52,-42.87,-25.02,-9.82,-1.7,-0.5
15.02,18.07,-49.87,-11.92,-9.16,-2.22,0.38
15.14,20.41,-48.4,-15.72,-8.84,-2.26,1.57
15.25,25.4,-48.04,-25.59,-8.59,-3.06,2.62
15.37,13.89,-80.89,-46.06,-5.88,-2.48,3.19
15.48,22.9,-13.16,-12.2,-5.93,-3.22,4.09
15.6,27.6,-13.68,6.6,-7.75,-2.71,5.5
15.71,17.63,-26.89,-24.79,-7.64,-3.9,5.51
15.82,7.77,-4.22,4.84,-6.09,-2.45,6.02
15.94,-9.02,0.27,16.43,-5.45,-2.79,5.79
16.05,-8.73,48.88,9.21,-6.18,-3.03,5.0
16.17,-15.76,65.31,22.49,-7.05,-2.44,4.38
16.28,-25.97,118.99,25.27,-8.47,-2.16,2.74
16.4,-36.05,65.93,33.5,-9.54,-2.38,0.73
16.51,-32.86,61.84,36.26,-8.59,-1.55,0.09
16.63,-7.99,77.67,48.75,-9.59,-0.51,-2.4
16.74,-8.58,71.72,29.9,-9.92,-0.24,-3.66
16.85,32.09,-33.84,72.03,-7.97,-1.32,-2.97
16.97,7.04,-1.21,17.67,-9.07,0.35,-4.01
17.08,-0.66,-3.0,-0.47,-9.03,0.36,-3.94
17.2,0.15,-1.09,0.63,-8.93,0.43,-3.97
17.31,-0.23,0.06,-0.78,-8.96,0.39,-3.94
17.43,-0.4,0.22,-1.26,-8.97,0.38,-3.98
17.54,-0.26,0.04,-0.82,-8.97,0.37,-3.95
17.65,-0.19,-0.07,-0.56,-8.97,0.36,-3.97
17.77,-0.14,-0.02,-0.52,-8.97,0.34,-3.96
17.88,-0.15,-0.02,-0.52,-8.97,0.34,-3.98
18.0,-0.11,-0.0,-0.44,-8.97,0.32,-3.96
18.11,-0.09,-0.02,-0.38,-8.98,0.32,-3.96
18.23,-0.06,0.04,-0.3,-8.97,0.32,-3.96
18.34,-0.22,0.07,-0.61,-8.99,0.3,-3.97
18.45,-0.06,-0.02,-0.24,-8.98,0.29,-3.97
18.57,-0.05,-0.07,-0.13,-8.98,0.29,-3.99
18.68,-0.12,0.01,-0.44,-8.98,0.29,-3.97
18.8,-0.06,0.03,-0.29,-8.98,0.28,-3.98
18.91,-0.06,-0.02,-0.23,-8.97,0.28,-3.98
19.02,-0.06,0.01,-0.29,-8.98,0.28,-3.96
19.14,-0.08,-0.02,-0.23,-8.98,0.27,-3.97
19.25,-0.06,0.01,-0.15,-8.98,0.29,-3.96
19.37,-0.08,0.03,-0.23,-8.97,0.26,-3.97
19.48,-0.06,-0.0,-0.21,-8.98,0.26,-3.96
19.6,-0.05,-0.04,-0.1,-8.97,0.26,-3.95
19.71,-0.05,-0.0,-0.04,-8.99,0.25,-3.95
19.82,-0.05,-0.0,-0.15,-8.98,0.24,-3.97
19.94,-0.05,0.03,-0.12,-8.97,0.26,-3.98
20.05,-0.09,-0.02,-0.21,-8.98,0.25,-3.97
20.17,-0.08,0.01,-0.17,-8.98,0.25,-3.96
20.28,-0.02,-0.02,-0.04,-8.98,0.25,-3.96
20.4,-0.06,-0.0,-0.15,-8.99,0.25,-3.97
20.51,-0.03,0.01,-0.15,-8.99,0.26,-3.97
20.62,-0.08,0.04,-0.17,-8.99,0.25,-3.95
20.74,-0.03,0.03,-0.15,-8.97,0.24,-3.96
20.85,-0.05,0.06,-0.12,-8.96,0.23,-3.98
20.97,-0.0,-0.04,0.02,-8.98,0.25,-3.96
21.08,-0.02,0.12,-0.09,-8.97,0.22,-3.98
21.2,-0.35,0.04,-0.84,-9.0,0.24,-3.94
21.31,0.21,-0.14,0.67,-8.98,0.22,-3.95
21.42,-0.09,-0.0,-0.17,-8.97,0.23,-3.96
21.54,-0.11,0.06,-0.39,-8.98,0.23,-3.96
21.65,-0.08,0.03,-0.17,-8.98,0.22,-3.96
21.77,-0.02,0.03,-0.07,-8.98,0.23,-3.96
21.88,-0.02,-0.05,-0.01,-8.99,0.22,-3.96
22.0,0.03,-0.05,0.17,-8.98,0.22,-3.97
22.11,-0.08,0.01,-0.24,-8.99,0.21,-3.95
22.22,-0.12,0.01,-0.33,-8.98,0.23,-3.96
22.34,0.06,-0.07,0.17,-8.99,0.23,-3.98
22.45,-0.0,0.01,-0.01,-8.97,0.22,-3.99
22.56,-0.14,-0.11,-0.32,-8.99,0.21,-3.97
22.68,0.12,0.06,0.19,-8.99,0.2,-3.97
22.79,-0.0,0.06,-0.04,-8.96,0.21,-3.97
22.91,-0.14,0.03,-0.33,-8.97,0.22,-3.96
23.02,-0.0,-0.08,0.16,-8.99,0.2,-3.99
23.14,-0.03,-0.05,-0.03,-8.98,0.21,-3.97
23.25,-0.03,0.01,-0.12,-8.99,0.21,-3.95
23.36,-0.11,0.01,-0.17,-8.99,0.21,-3.96
23.48,-0.02,-0.05,0.0,-8.99,0.22,-3.96
23.59,0.1,-0.14,0.23,-8.99,0.21,-3.96
23.71,-0.11,-0.02,-0.29,-9.01,0.21,-3.95
23.82,-0.06,0.06,-0.17,-9.0,0.2,-3.96
23.94,-0.11,-0.02,-0.21,-8.97,0.2,-3.97
24.05,-0.02,0.1,-0.13,-8.97,0.2,-3.95
24.16,-0.06,-0.05,-0.09,-8.98,0.19,-3.97
24.28,-0.06,-0.08,-0.07,-8.99,0.2,-3.97
24.39,0.03,0.01,0.08,-8.97,0.19,-3.97
24.51,-0.03,-0.04,-0.04,-8.97,0.2,-3.95
24.62,-0.05,-0.05,-0.12,-8.96,0.19,-3.96
24.73,-0.03,-0.07,-0.12,-8.97,0.19,-3.98
24.85,0.01,-0.02,0.09,-8.99,0.19,-3.99
24.96,-0.05,0.04,-0.12,-8.96,0.2,-3.94
25.08,-0.12,-0.0,-0.26,-8.98,0.2,-3.98
25.19,0.06,0.04,0.11,-8.99,0.21,-3.96
25.31,-0.02,0.09,-0.1,-8.97,0.2,-3.97
25.42,-0.08,0.01,-0.15,-8.98,0.2,-3.98
25.53,0.06,-0.04,0.28,-8.98,0.19,-3.96
25.65,-0.02,0.04,-0.03,-8.96,0.2,-3.96
25.76,-0.03,-0.04,-0.06,-8.98,0.18,-3.97
25.88,-0.09,-0.07,-0.18,-8.99,0.17,-3.93
25.99,0.06,0.06,0.08,-8.97,0.21,-3.97
26.1,-0.06,0.01,-0.15,-8.98,0.2,-3.98
26.22,-0.03,-0.05,-0.01,-8.98,0.2,-3.97
26.33,-0.05,-0.07,-0.06,-8.97,0.19,-3.97
26.45,-0.05,0.01,-0.07,-8.98,0.18,-3.97
26.56,0.01,-0.04,0.05,-8.98,0.19,-3.95
26.68,0.04,-0.0,0.11,-8.97,0.19,-3.96
26.79,-0.08,-0.02,-0.17,-8.98,0.2,-3.93
26.9,-0.02,0.04,0.0,-8.98,0.2,-3.98
27.02,0.03,0.01,0.03,-8.98,0.19,-3.95
27.13,0.04,-0.04,0.06,-8.99,0.19,-3.95
27.25,-0.05,-0.04,-0.04,-8.99,0.18,-3.99
27.36,-0.03,0.01,-0.06,-8.99,0.18,-3.95
27.47,-0.06,0.01,-0.17,-8.98,0.19,-3.97
27.59,-0.87,-1.24,-2.3,-9.05,0.19,-3.96
27.7,-0.06,0.41,-0.07,-8.93,0.26,-3.98
27.82,-0.22,0.27,-0.65,-8.97,0.18,-3.98
27.93,-0.23,0.07,-0.67,-8.97,0.18,-3.97
28.05,0.03,-0.05,0.14,-8.97,0.19,-3.96
28.16,-0.03,0.01,0.02,-8.99,0.18,-3.97
28.27,-0.02,-0.04,-0.06,-8.99,0.18,-3.97
28.39,-0.11,-0.14,-0.2,-9.0,0.19,-3.97
28.5,0.01,-0.08,0.05,-8.98,0.18,-3.96
28.62,-0.0,0.07,-0.03,-8.98,0.19,-3.99
28.73,-0.0,0.06,-0.03,-8.98,0.19,-3.96
28.84,-0.02,0.01,-0.06,-8.99,0.17,-3.96
28.96,-0.0,-0.02,0.05,-8.98,0.17,-3.99
29.07,-0.08,0.03,-0.17,-8.99,0.19,-3.96
29.19,-0.0,-0.08,0.03,-8.98,0.18,-3.97
29.3,0.01,-0.02,0.03,-8.96,0.17,-3.98
29.42,-0.0,-0.02,-0.01,-8.98,0.18,-3.96
29.53,-0.0,0.04,0.03,-8.98,0.17,-3.95
29.64,-0.02,-0.04,-0.1,-8.99,0.18,-3.97
29.76,0.03,-0.05,0.12,-8.99,0.19,-3.98
29.87,-0.02,-0.0,-0.03,-8.98,0.18,-3.96
29.99,-0.06,0.01,-0.12,-8.99,0.18,-3.97
30.1,0.03,0.07,0.02,-8.97,0.18,-3.97
30.21,-0.05,0.01,-0.1,-8.97,0.17,-3.97
30.33,-0.0,-0.0,-0.03,-8.97,0.17,-3.98
30.44,-0.0,0.01,0.11,-8.97,0.17,-3.98
30.56,-0.02,0.01,0.03,-8.96,0.18,-3.99
30.67,-0.09,0.01,-0.17,-9.0,0.17,-3.96
30.78,0.06,-0.05,0.09,-9.0,0.17,-3.96
30.9,0.07,-0.04,0.22,-8.97,0.17,-3.96
31.01,0.03,0.01,0.08,-8.97,0.18,-3.96
31.13,-0.06,0.07,-0.13,-8.98,0.17,-3.96
31.24,-0.03,-0.0,-0.01,-8.98,0.18,-3.99
31.35,-0.0,0.01,0.02,-8.99,0.17,-3.97
31.47,0.01,-0.07,-0.01,-8.99,0.17,-3.96
31.58,-0.02,0.01,-0.01,-8.99,0.18,-3.95
31.7,-0.0,-0.07,0.02,-8.99,0.19,-3.96
31.81,0.01,0.03,0.03,-8.98,0.17,-3.99
31.92,-0.02,0.07,-0.06,-8.99,0.17,-3.96
32.04,-0.02,0.04,-0.06,-8.96,0.18,-3.95
32.15,-0.0,0.01,0.0,-8.96,0.18,-3.97
32.27,0.04,-0.04,0.12,-8.98,0.17,-3.96
32.38,-0.05,0.06,-0.12,-8.98,0.17,-3.97
32.5,-0.03,0.07,-0.13,-8.97,0.17,-3.97
32.61,-0.03,-0.04,-0.04,-8.98,0.18,-3.95
32.72,-0.02,-0.08,0.0,-8.98,0.16,-3.97
32.84,0.01,-0.0,0.08,-8.97,0.17,-3.98
32.95,-0.0,-0.11,-0.01,-8.97,0.17,-3.95
33.07,-0.0,-0.07,0.09,-8.98,0.17,-3.98
33.18,-0.03,0.1,-0.03,-8.97,0.18,-3.96
33.29,-0.02,-0.02,-0.03,-8.97,0.17,-3.97
33.41,0.03,0.01,0.12,-8.99,0.17,-3.96
33.52,0.06,-0.05,0.16,-8.99,0.18,-3.97
33.64,-0.09,-0.04,-0.18,-8.97,0.19,-3.96
33.75,-0.06,-0.02,-0.09,-8.98,0.17,-3.98
33.87,0.01,-0.02,0.05,-8.98,0.17,-3.96
33.98,-0.02,-0.13,0.05,-8.98,0.17,-3.97
34.09,0.01,-0.07,0.11,-8.98,0.17,-3.95
34.21,0.01,-0.04,0.06,-8.96,0.17,-3.98
34.32,-0.0,0.01,0.06,-8.97,0.19,-3.94
34.44,-0.03,-0.0,-0.06,-8.98,0.17,-3.95
34.55,-0.05,0.01,-0.09,-8.98,0.18,-3.94
34.66,-0.0,0.01,0.03,-8.98,0.17,-3.94
34.78,0.01,-0.02,-0.07,-8.97,0.16,-3.97
34.89,-0.0,-0.04,0.03,-8.98,0.18,-3.97
35.01,-0.02,-0.02,-0.04,-8.99,0.17,-3.95
35.12,-0.03,0.03,-0.03,-8.98,0.16,-3.98
35.24,-0.02,-0.02,-0.01,-9.01,0.17,-3.98
35.35,-0.03,0.01,-0.07,-8.98,0.16,-3.95
35.46,0.03,-0.05,0.03,-8.98,0.16,-3.95
35.58,0.01,-0.0,0.0,-8.98,0.15,-3.97
35.69,-0.05,-0.02,-0.12,-8.97,0.17,-3.98
35.81,-0.0,0.01,0.0,-8.99,0.17,-3.97
35.92,0.06,0.04,0.12,-8.98,0.16,-3.97
36.03,-0.03,-0.0,-0.06,-8.98,0.18,-3.95
36.15,-0.06,-0.04,-0.04,-8.96,0.16,-3.97
36.26,0.03,-0.04,0.14,-8.98,0.16,-3.98
36.38,-0.02,0.01,-0.06,-8.98,0.16,-3.97
36.49,-0.05,-0.05,-0.07,-8.98,0.16,-3.98
36.6,-0.05,-0.02,-0.09,-8.99,0.17,-3.97
36.72,0.09,-0.02,0.22,-8.97,0.16,-3.96
36.83,0.01,0.04,-0.01,-8.98,0.17,-3.98
36.95,-0.02,0.01,-0.1,-8.98,0.16,-3.97
37.06,0.03,0.01,0.0,-8.98,0.16,-3.98
37.18,0.03,-0.0,0.02,-8.97,0.17,-3.96
37.29,-0.05,-0.0,-0.03,-8.98,0.16,-3.99
37.4,0.01,-0.0,0.12,-8.98,0.16,-3.96
37.52,-0.0,-0.11,0.0,-8.99,0.16,-3.98
37.63,-0.05,0.01,-0.06,-8.98,0.16,-3.96
37.75,0.01,-0.0,0.0,-8.97,0.18,-3.97
37.86,0.06,0.03,0.11,-8.98,0.16,-3.95
37.97,0.03,-0.05,0.16,-8.97,0.15,-3.98
38.09,-0.03,-0.0,-0.15,-8.97,0.16,-3.97
38.2,0.03,0.01,0.06,-8.98,0.17,-3.97
38.32,-0.08,0.01,-0.13,-8.98,0.16,-3.97
38.43,0.04,0.01,0.11,-8.98,0.15,-3.94
38.54,-0.03,-0.0,-0.09,-8.98,0.17,-3.94
38.66,-0.0,-0.08,0.05,-8.98,0.15,-3.98
38.77,-0.06,-0.07,-0.15,-8.99,0.17,-3.95
38.89,0.06,0.06,0.11,-8.97,0.18,-3.96
39.0,0.01,0.01,0.0,-8.98,0.16,-3.96
39.11,0.01,0.03,0.05,-8.98,0.16,-3.95
39.23,0.01,0.01,0.02,-8.98,0.16,-3.96
39.34,0.04,-0.02,0.11,-8.99,0.16,-3.96
39.46,-0.08,0.03,-0.17,-8.98,0.16,-3.99
39.57,-0.12,-0.04,-0.23,-8.98,0.16,-3.96
39.69,-0.02,-0.04,-0.03,-8.98,0.17,-3.96
39.8,0.01,-0.02,0.08,-8.98,0.16,-3.98
39.91,-0.05,-0.0,-0.1,-8.98,0.16,-3.97
40.03,-0.03,-0.0,-0.04,-8.97,0.15,-3.96
40.14,-0.0,-0.0,0.06,-8.99,0.17,-3.97
40.26,-0.02,0.01,0.05,-8.99,0.17,-3.98
40.37,-0.02,-0.0,0.02,-8.97,0.16,-3.97
40.48,0.01,0.01,0.05,-8.97,0.18,-3.98
40.6,0.01,-0.0,0.0,-8.98,0.15,-3.95
40.71,-0.02,-0.0,-0.03,-8.99,0.18,-3.96
40.83,-0.0,-0.05,0.0,-8.99,0.16,-3.99
40.94,-0.02,-0.0,-0.03,-8.97,0.15,-3.95
41.05,0.01,0.03,0.0,-8.99,0.15,-3.97
41.17,-0.06,0.03,-0.06,-8.98,0.16,-3.97
41.28,-0.0,-0.0,-0.01,-8.98,0.16,-3.95
41.4,-0.02,-0.02,0.0,-8.96,0.15,-3.97
41.51,-0.0,0.04,0.05,-8.98,0.17,-3.96
41.63,-0.02,-0.0,-0.03,-8.97,0.16,-3.98
41.74,-0.02,-0.02,0.0,-8.98,0.16,-3.97
41.85,-0.05,-0.04,-0.01,-8.98,0.16,-3.96
41.97,-0.06,-0.0,-0.06,-8.97,0.17,-3.96
42.08,-0.02,0.01,0.03,-8.98,0.16,-3.97
42.2,-0.03,-0.04,-0.07,-8.97,0.16,-3.98
42.31,-0.02,-0.07,-0.06,-8.97,0.16,-3.96
42.43,-0.02,0.01,0.03,-8.99,0.16,-3.98
42.54,-0.08,-0.04,-0.12,-8.97,0.17,-3.97
42.65,-0.08,0.01,-0.15,-8.98,0.15,-3.98
42.77,0.06,0.01,0.06,-8.98,0.15,-3.97
42.88,0.03,0.01,0.05,-8.97,0.16,-3.97
42.99,-0.06,0.06,-0.17,-8.97,0.17,-3.98
43.11,-0.08,0.04,-0.1,-8.98,0.17,-3.95
43.22,-0.02,-0.05,0.05,-8.97,0.16,-3.96
43.34,-0.0,0.01,0.02,-8.97,0.16,-3.98
43.45,0.03,-0.02,0.14,-8.97,0.17,-3.96
43.56,-0.02,-0.05,0.03,-9.0,0.15,-3.97
43.68,-0.03,0.01,-0.07,-8.98,0.15,-3.99
43.79,0.01,0.01,0.03,-8.97,0.15,-3.97
43.91,0.03,-0.02,0.08,-8.98,0.16,-3.97
44.02,-0.0,0.03,0.06,-8.98,0.16,-3.97
44.13,-0.05,-0.02,-0.1,-8.99,0.15,-3.95
44.25,-0.02,-0.0,0.0,-8.97,0.16,-3.97
44.36,-0.05,-0.08,-0.15,-8.99,0.16,-3.97
44.48,-0.08,-0.11,-0.1,-8.97,0.15,-3.96
44.59,-0.02,0.03,-0.12,-8.97,0.16,-3.98
44.71,-0.06,0.01,-0.09,-8.97,0.14,-3.96
44.82,0.03,0.01,0.06,-8.98,0.16,-3.96
44.94,-0.46,-0.28,-1.11,-9.0,0.16,-3.98
45.05,0.07,-0.2,0.29,-8.97,0.17,-3.97
45.16,-0.0,-0.0,0.06,-8.97,0.15,-3.95
45.28,-0.05,0.12,-0.23,-8.99,0.15,-3.97
45.39,0.09,0.07,0.23,-8.98,0.17,-3.96
45.51,-0.12,-0.07,-0.21,-8.98,0.16,-3.97
45.62,-0.02,-0.08,0.0,-8.97,0.16,-3.97
45.73,-0.02,-0.0,0.0,-8.98,0.17,-3.98
45.85,-0.0,-0.02,0.02,-8.99,0.15,-3.97
45.96,-0.02,-0.0,-0.03,-8.98,0.16,-3.96
46.08,-0.0,-0.05,0.0,-8.97,0.16,-3.96
46.19,-0.09,-0.0,-0.13,-8.98,0.16,-3.97
46.31,-0.03,0.01,-0.04,-8.98,0.14,-3.97
46.42,-0.03,-0.07,0.0,-8.99,0.16,-3.96
46.53,-0.06,-0.07,-0.06,-8.98,0.16,-3.96
46.65,0.01,0.03,0.0,-8.97,0.16,-3.98
46.76,-0.0,-0.0,0.08,-8.97,0.16,-3.97
46.88,-0.03,0.01,-0.07,-8.98,0.16,-3.98
46.99,-0.03,-0.1,-0.04,-8.98,0.15,-3.97
47.1,-0.02,-0.08,-0.04,-8.97,0.16,-3.96
47.22,0.03,-0.04,0.09,-8.97,0.16,-3.98
47.33,-0.0,0.03,-0.06,-8.97,0.16,-3.97
47.45,-0.02,-0.04,-0.03,-8.98,0.16,-3.97
47.56,0.03,-0.02,0.06,-8.98,0.16,-3.96
47.68,0.03,0.03,0.08,-8.97,0.16,-3.97
47.79,-0.02,-0.04,0.0,-8.98,0.14,-3.96
47.9,-0.03,-0.02,-0.07,-8.99,0.14,-3.98
48.02,0.01,-0.0,0.05,-8.97,0.16,-3.96
48.13,0.04,-0.05,0.02,-8.97,0.14,-3.99
48.25,-0.0,-0.08,-0.03,-8.99,0.16,-3.95
48.36,0.01,-0.05,0.05,-8.97,0.15,-3.96
48.47,-0.03,0.01,-0.06,-8.97,0.16,-3.95
48.59,-0.08,0.04,-0.1,-8.98,0.16,-3.97
48.7,0.03,0.01,0.06,-8.98,0.15,-3.96
48.82,-0.02,0.01,-0.01,-8.98,0.15,-3.96
48.93,-0.0,-0.02,-0.03,-8.98,0.15,-3.97
49.04,-0.09,0.01,-0.13,-8.97,0.16,-3.96
49.16,0.03,-0.04,-0.06,-8.98,0.16,-3.96
49.27,-0.03,-0.0,0.0,-8.99,0.15,-3.96
49.39,0.01,-0.05,0.05,-8.99,0.15,-3.99
49.5,-0.03,0.03,-0.09,-8.97,0.15,-3.97
49.61,0.01,-0.0,0.03,-8.98,0.16,-3.97
49.73,0.03,-0.02,0.08,-8.99,0.16,-3.97
49.84,-0.05,-0.02,0.0,-8.98,0.14,-3.97
49.96,-0.05,-0.0,-0.06,-9.0,0.15,-3.96
50.07,0.03,-0.02,0.09,-8.98,0.16,-3.96
50.19,0.07,-0.02,0.2,-8.97,0.16,-3.97
50.3,-0.03,-0.0,-0.03,-8.99,0.16,-3.96
50.41,-0.03,-0.07,-0.01,-8.98,0.17,-3.96
50.53,-0.08,-0.05,-0.13,-8.99,0.15,-3.97
50.64,0.01,0.04,0.05,-8.98,0.17,-3.98
50.76,-0.06,0.03,-0.04,-8.98,0.17,-3.97
50.87,-0.03,-0.05,-0.03,-8.97,0.17,-3.96
50.98,0.01,-0.04,0.11,-8.99,0.15,-3.99
51.1,-0.03,0.03,-0.1,-8.97,0.16,-3.97
51.21,0.01,-0.0,0.0,-8.98,0.15,-3.96
51.33,-0.02,-0.0,0.03,-8.99,0.16,-3.97
51.44,-0.02,0.01,-0.01,-8.97,0.16,-3.98
51.56,-0.0,-0.0,0.05,-8.97,0.16,-3.95
51.67,-0.05,-0.04,-0.04,-9.0,0.16,-3.98
51.78,-0.02,-0.04,-0.04,-8.98,0.15,-3.97
51.9,-0.03,0.01,-0.04,-8.99,0.15,-3.98
52.01,-0.0,-0.0,0.0,-8.99,0.15,-3.98
52.13,0.01,-0.0,0.08,-8.97,0.16,-3.96
52.24,0.03,-0.0,0.12,-8.99,0.17,-3.94
52.35,-0.0,0.06,-0.12,-8.98,0.16,-3.95
52.47,-0.05,0.13,-0.1,-8.98,0.16,-3.96
52.58,0.03,0.04,0.08,-8.99,0.14,-3.97
52.7,-0.03,0.01,-0.04,-8.98,0.15,-3.95
52.81,-0.08,-0.1,-0.17,-8.98,0.15,-3.97
52.92,-0.05,-0.04,-0.03,-8.98,0.15,-3.95
53.04,-0.0,0.03,0.02,-8.97,0.16,-3.97
53.15,-0.06,-0.02,-0.12,-8.98,0.16,-3.96
53.27,0.03,-0.07,0.16,-8.99,0.15,-3.95
53.38,-0.03,-0.08,0.02,-8.98,0.15,-3.97
53.5,0.03,-0.0,0.16,-8.98,0.15,-3.98
53.61,-0.03,0.01,-0.01,-8.98,0.16,-3.97
53.72,-0.05,-0.04,-0.01,-8.99,0.15,-3.97
53.84,-0.0,-0.02,0.02,-8.98,0.17,-3.95
53.95,-0.06,-0.0,-0.09,-8.97,0.16,-3.95
54.07,-0.02,-0.08,-0.03,-8.98,0.15,-3.97
54.18,-0.0,0.03,0.08,-8.98,0.16,-3.94
54.29,-0.0,-0.02,-0.04,-8.98,0.15,-3.95
54.41,0.04,0.01,0.16,-8.97,0.16,-3.95
54.52,-0.0,-0.04,0.05,-8.97,0.15,-3.96
54.64,0.03,-0.0,0.03,-8.98,0.14,-3.97
54.75,-0.06,-0.02,-0.13,-8.97,0.15,-3.96
54.87,0.03,-0.08,0.17,-8.99,0.15,-3.99
54.98,-0.02,-0.08,0.05,-8.98,0.16,-3.96
55.09,-0.03,-0.04,-0.01,-8.97,0.14,-3.96
55.21,0.01,0.03,0.12,-8.99,0.16,-3.97
55.32,-0.05,0.03,-0.18,-9.0,0.16,-3.98
55.44,0.01,0.06,0.0,-8.96,0.15,-3.98
55.55,-0.02,-0.05,0.0,-8.97,0.15,-3.97
55.66,-0.02,0.01,0.02,-8.98,0.15,-3.97
55.78,0.01,-0.04,0.06,-8.97,0.15,-3.96
55.89,-0.06,0.06,-0.07,-8.99,0.15,-3.96
56.01,-0.05,-0.07,-0.06,-8.98,0.16,-3.96
56.12,0.03,-0.04,0.16,-9.0,0.16,-3.94
56.23,0.01,0.01,0.03,-8.98,0.16,-3.96
56.35,0.01,0.01,0.0,-8.97,0.15,-3.97
56.46,0.03,-0.04,0.09,-8.98,0.15,-3.97
56.58,0.03,0.04,0.05,-8.97,0.16,-3.96
56.69,-0.02,-0.0,-0.03,-8.98,0.15,-3.98
56.8,-0.0,-0.04,0.03,-9.0,0.14,-3.96
56.92,-0.0,-0.0,0.0,-8.98,0.15,-3.97
57.03,-0.02,0.07,0.02,-8.98,0.16,-3.97
57.15,-0.02,-0.0,-0.03,-8.98,0.15,-3.96
57.26,-0.08,-0.04,-0.09,-9.0,0.15,-3.96
57.37,-0.08,-0.02,-0.15,-9.0,0.15,-3.96
57.49,0.01,-0.04,0.11,-8.99,0.15,-3.95
57.6,-0.02,0.01,-0.03,-8.99,0.15,-3.98
57.72,-0.02,-0.02,0.0,-8.99,0.16,-3.96
57.83,-0.02,-0.02,0.05,-8.99,0.16,-3.95
57.95,-0.05,-0.02,-0.07,-8.99,0.15,-3.95
58.06,-0.02,-0.04,-0.01,-8.97,0.16,-3.95
58.17,-0.05,-0.02,-0.06,-8.98,0.15,-3.95
58.29,0.03,-0.0,0.06,-8.99,0.15,-3.95
58.4,0.04,0.06,0.12,-8.97,0.14,-3.96
58.52,-0.02,-0.05,-0.03,-9.0,0.15,-3.95
58.63,0.01,-0.0,0.09,-8.97,0.14,-3.97
58.74,-0.05,0.06,-0.09,-8.96,0.16,-3.99
58.86,-0.08,-0.02,-0.12,-8.97,0.15,-3.96
58.97,0.03,-0.02,0.06,-9.0,0.15,-3.95
59.09,-0.05,0.06,-0.07,-8.97,0.14,-3.96
59.2,-0.02,-0.05,0.03,-8.98,0.15,-3.97
59.32,-0.03,-0.05,-0.01,-8.99,0.16,-3.95
59.43,0.01,-0.04,0.12,-8.98,0.15,-3.95
59.54,-0.02,0.03,-0.06,-8.97,0.15,-3.97
59.66,-0.0,-0.02,-0.04,-8.99,0.14,-3.97
59.77,0.03,-0.0,0.06,-8.98,0.15,-3.95
59.89,0.04,0.03,0.12,-8.98,0.15,-3.97
60.0,0.06,-0.02,0.14,-8.98,0.16,-3.95
60.11,-0.11,-0.05,-0.21,-8.98,0.14,-3.94
60.23,0.01,-0.04,0.06,-8.97,0.14,-3.98
60.34,0.03,0.04,0.11,-8.97,0.15,-3.97
60.46,-0.0,0.03,0.02,-8.99,0.15,-3.98
60.57,-0.02,-0.04,0.02,-8.98,0.16,-3.96
60.68,0.01,0.03,0.12,-8.97,0.14,-3.94
60.8,-0.03,-0.05,-0.06,-8.98,0.14,-3.95
60.91,-0.03,-0.02,-0.01,-8.98,0.14,-3.97
61.03,0.01,0.06,0.05,-8.98,0.15,-3.96
61.14,0.01,0.03,-0.01,-8.98,0.13,-3.96
61.25,0.09,-0.02,0.22,-8.98,0.13,-3.97
61.37,0.01,-0.07,0.03,-8.98,0.15,-3.95
61.48,0.09,0.13,0.17,-8.99,0.15,-3.96
61.6,-0.02,-0.05,-0.01,-8.99,0.14,-3.97
61.71,-0.11,-0.11,-0.13,-8.97,0.14,-3.96
61.83,0.03,-0.02,0.11,-8.98,0.15,-3.98
61.94,0.03,-0.04,0.06,-8.99,0.16,-3.97
62.05,0.07,-0.07,0.17,-8.99,0.16,-3.97
62.17,0.01,-0.0,-0.01,-8.98,0.14,-3.96
62.28,-0.06,-0.0,-0.06,-8.98,0.15,-3.96
62.4,-0.03,-0.05,-0.06,-8.99,0.16,-3.95
62.51,-0.0,0.04,0.12,-8.99,0.15,-3.99
62.62,-0.05,-0.04,-0.13,-8.97,0.15,-3.95
62.74,-0.0,0.04,-0.01,-8.99,0.15,-3.97
62.85,0.06,0.09,0.16,-8.98,0.14,-3.96
62.97,-0.03,-0.05,-0.09,-8.98,0.15,-3.98
63.08,-0.06,-0.04,-0.07,-8.99,0.15,-3.95
63.2,0.03,-0.04,0.03,-8.98,0.15,-3.95
63.31,-0.03,-0.02,-0.04,-8.99,0.16,-3.97
63.42,-0.03,-0.08,-0.04,-8.99,0.15,-3.98
63.54,-0.0,-0.04,0.05,-8.98,0.14,-3.96
63.65,0.01,0.01,0.09,-8.99,0.15,-3.97
63.77,-0.05,-0.0,-0.04,-8.99,0.15,-3.97
63.88,0.01,-0.08,0.06,-8.98,0.15,-3.96
63.99,-0.0,-0.02,0.05,-8.96,0.14,-3.97
64.11,-0.02,0.01,-0.06,-8.98,0.13,-3.99
64.22,0.01,0.01,-0.01,-8.98,0.14,-3.98
64.34,-0.0,-0.07,0.08,-8.96,0.15,-3.95
64.45,0.04,-0.0,0.08,-8.98,0.16,-3.96
64.56,-0.06,0.01,-0.09,-8.98,0.15,-3.95
64.68,-0.0,-0.04,-0.01,-8.97,0.14,-3.94
64.79,-0.03,-0.0,-0.07,-8.97,0.16,-3.94
64.91,-0.06,-0.05,-0.09,-8.97,0.15,-3.98
65.02,-0.02,-0.04,0.03,-9.0,0.14,-3.96
65.13,0.03,0.03,0.08,-8.99,0.15,-3.98
65.25,0.03,0.01,-0.01,-8.98,0.15,-3.96
65.36,-0.02,0.01,-0.01,-8.97,0.15,-3.97
65.48,-0.02,-0.04,-0.06,-8.98,0.15,-3.96
65.59,-0.02,0.01,0.02,-8.99,0.15,-3.95
65.7,0.01,-0.0,0.02,-8.97,0.15,-3.96
65.82,-0.02,-0.0,-0.04,-8.97,0.14,-3.97
65.93,-0.02,0.01,0.0,-8.99,0.15,-3.97
66.05,-0.0,0.04,0.11,-9.0,0.15,-3.98
66.16,0.03,-0.02,0.11,-8.97,0.13,-3.98
66.28,-0.0,-0.05,-0.04,-9.0,0.14,-3.96
66.39,-0.03,-0.0,-0.03,-8.99,0.15,-3.97
66.5,0.01,0.03,0.09,-8.99,0.14,-3.97
66.62,-0.03,0.07,-0.06,-8.98,0.16,-3.99
66.73,-0.0,0.01,0.0,-8.97,0.16,-3.96
66.85,-0.0,-0.04,0.03,-8.98,0.14,-3.98
66.96,-0.05,-0.08,-0.06,-8.99,0.15,-3.97
67.08,0.03,-0.05,0.08,-8.98,0.15,-3.95
67.19,0.01,0.04,0.03,-8.99,0.14,-3.96
67.3,-0.02,-0.0,-0.01,-8.98,0.15,-3.96
67.42,-0.02,-0.05,-0.03,-8.97,0.14,-3.98
67.53,-0.0,0.01,0.02,-8.98,0.14,-3.95
67.65,-0.02,0.01,-0.01,-8.98,0.15,-3.97
67.76,-0.03,-0.0,-0.09,-8.98,0.13,-3.97
67.87,0.01,-0.08,0.14,-8.97,0.15,-3.95
67.99,0.03,0.04,0.12,-8.99,0.13,-3.98
68.1,0.03,0.04,0.0,-8.97,0.15,-3.97
68.21,-0.03,-0.04,-0.09,-8.98,0.14,-3.95
68.33,0.01,-0.05,0.09,-8.97,0.15,-3.97
68.44,0.01,-0.05,0.02,-8.97,0.15,-3.98
68.56,-0.0,-0.05,0.08,-8.99,0.15,-3.94
68.67,-0.02,-0.05,0.02,-8.98,0.14,-3.98
68.79,0.01,-0.05,0.08,-8.98,0.15,-3.97
68.9,0.03,0.01,0.02,-8.98,0.15,-3.96
69.01,0.03,0.03,-0.01,-8.99,0.15,-3.96
69.13,0.03,0.12,0.16,-8.99,0.15,-3.99
69.24,-0.0,-0.05,0.09,-8.97,0.15,-3.97
69.36,-0.03,-0.0,-0.06,-8.98,0.17,-3.98
69.47,-0.08,0.1,-0.24,-8.97,0.14,-3.98
69.58,-0.02,-0.04,0.0,-8.99,0.14,-3.97
69.7,-0.0,-0.16,0.09,-8.99,0.14,-3.98
69.81,0.12,0.22,0.23,-8.99,0.14,-3.96
69.93,0.03,0.19,0.09,-8.98,0.14,-3.99
70.04,-0.05,-0.04,-0.13,-8.98,0.14,-3.96
70.15,0.04,-0.08,0.16,-9.0,0.14,-3.98
70.27,-0.0,0.09,-0.06,-8.99,0.15,-3.97
70.38,0.03,-0.07,0.09,-8.98,0.17,-3.95
70.5,-0.03,-0.02,-0.03,-8.98,0.15,-3.96
70.61,0.03,0.04,0.03,-8.98,0.15,-3.96
70.72,-0.0,-0.02,0.11,-8.99,0.15,-3.97
70.84,-0.0,0.04,0.03,-8.98,0.14,-3.98
70.95,-0.0,-0.0,-0.01,-8.98,0.16,-3.98
71.07,0.03,-0.05,0.08,-8.98,0.15,-3.99
71.18,0.18,0.07,0.4,-8.96,0.15,-3.96
71.3,-0.25,0.04,-0.7,-9.0,0.14,-3.96
71.41,0.15,0.06,0.45,-8.97,0.13,-3.97
71.52,-0.05,0.04,-0.06,-8.98,0.14,-3.96
71.64,-0.05,-0.05,-0.09,-8.99,0.13,-3.96
71.75,0.07,-0.04,0.28,-8.98,0.15,-3.96
71.87,-0.05,-0.07,-0.07,-8.99,0.15,-3.98
71.98,-0.05,-0.0,-0.06,-8.98,0.14,-3.97
72.09,0.04,0.01,0.06,-8.99,0.13,-3.96
72.21,0.04,0.01,0.26,-8.98,0.14,-3.96
72.32,-0.03,-0.04,-0.04,-8.99,0.14,-3.95
72.44,-0.06,-0.02,-0.09,-8.99,0.14,-3.96
72.55,-0.0,-0.07,0.05,-8.98,0.15,-3.99
72.66,0.01,-0.0,-0.07,-8.97,0.15,-3.97
72.78,-0.05,-0.08,-0.1,-8.99,0.15,-3.95
72.89,0.03,-0.02,0.17,-8.98,0.14,-3.96
73.01,-0.02,0.04,0.03,-8.99,0.16,-3.99
73.12,-0.08,-0.0,-0.13,-8.98,0.14,-3.96
73.24,0.03,0.07,0.06,-8.98,0.14,-3.98
73.35,-0.02,0.01,-0.12,-8.96,0.14,-3.97
73.46,-0.0,-0.11,0.12,-8.97,0.13,-3.97
73.58,0.03,-0.0,0.05,-8.98,0.13,-3.96
73.69,0.03,-0.0,0.08,-9.0,0.14,-3.95
73.81,-0.05,0.04,-0.15,-8.98,0.16,-3.97
73.92,-0.03,-0.02,-0.07,-8.97,0.16,-3.96
74.04,-0.05,-0.0,0.0,-8.99,0.14,-3.98
74.15,-0.0,-0.05,0.06,-8.99,0.15,-3.95
74.26,-0.03,0.01,-0.03,-8.98,0.15,-3.96
74.38,-0.06,0.04,-0.15,-8.99,0.15,-3.98
74.49,0.01,0.01,0.06,-8.97,0.13,-3.98
74.61,-0.03,-0.07,0.0,-8.98,0.13,-3.98
74.72,-0.05,-0.07,-0.04,-9.0,0.14,-3.97
74.83,-0.06,0.04,-0.04,-8.97,0.14,-3.94
74.95,-0.05,-0.02,-0.09,-8.98,0.14,-3.96
75.06,0.01,-0.08,0.06,-8.99,0.14,-3.96
75.18,0.03,-0.02,0.14,-8.99,0.13,-3.97
75.29,-0.05,-0.02,-0.12,-8.99,0.15,-3.95
75.4,-0.0,0.01,0.02,-8.99,0.15,-3.96
75.52,-0.0,-0.02,0.0,-8.98,0.15,-3.97
75.63,0.04,0.03,0.14,-8.98,0.16,-3.95
75.75,-0.03,0.04,-0.09,-8.98,0.14,-3.97
75.86,-0.02,0.06,-0.12,-8.98,0.13,-3.96
75.97,-0.0,0.01,0.02,-8.99,0.14,-3.99
76.09,0.07,-0.0,0.22,-8.98,0.13,-3.97
76.2,-0.03,-0.04,-0.06,-9.0,0.14,-3.96
76.32,0.01,-0.02,0.12,-9.0,0.14,-3.99
76.43,0.06,0.01,0.17,-8.98,0.13,-3.98
76.54,-0.03,-0.0,-0.06,-8.98,0.14,-3.96
76.66,-0.05,-0.07,-0.13,-8.99,0.14,-3.94
76.77,-0.0,0.01,0.0,-8.98,0.15,-3.98
76.89,0.09,0.1,0.23,-8.98,0.15,-3.96
77.0,-0.06,0.09,-0.12,-8.99,0.15,-3.96
77.11,0.03,0.04,0.19,-8.97,0.15,-3.98
77.23,-0.09,-0.1,-0.2,-8.99,0.14,-3.95
77.34,-0.0,-0.07,0.06,-8.96,0.14,-3.94
77.46,-0.03,0.03,0.06,-8.97,0.15,-3.99
77.57,-0.0,0.03,-0.03,-8.98,0.13,-3.98
77.68,0.01,-0.05,0.05,-8.99,0.13,-3.98
77.8,0.04,0.01,0.11,-8.98,0.14,-3.97
77.91,0.1,-0.0,0.26,-8.99,0.14,-3.97
78.03,-0.0,-0.0,0.02,-8.98,0.14,-3.97
78.14,0.01,-0.02,0.06,-8.97,0.16,-3.96
78.26,-0.05,-0.04,-0.03,-8.99,0.14,-3.97
78.37,0.01,0.01,0.02,-8.99,0.14,-3.96
78.48,-0.06,-0.02,-0.04,-8.98,0.15,-3.95
78.6,-0.0,-0.02,-0.03,-8.97,0.15,-3.95
78.71,-0.02,-0.0,0.06,-8.98,0.14,-3.97
78.83,0.03,-0.0,0.11,-8.98,0.15,-3.98
78.94,0.03,0.04,0.0,-8.99,0.14,-3.97
79.05,-0.03,-0.02,-0.04,-8.97,0.15,-4.0
79.17,-0.03,-0.0,0.03,-8.98,0.16,-3.98
79.28,0.01,-0.02,0.03,-8.98,0.14,-3.98
79.4,-0.03,-0.02,-0.01,-8.99,0.14,-3.97
79.51,-0.05,-0.05,-0.06,-8.97,0.15,-3.96
79.63,0.01,-0.0,0.06,-8.99,0.13,-3.96
79.74,-0.0,-0.05,0.05,-8.98,0.15,-3.98
79.85,-0.02,-0.0,-0.07,-8.99,0.15,-3.98
79.97,-0.02,-0.04,-0.01,-8.98,0.12,-3.96
80.08,0.01,-0.0,0.06,-8.98,0.13,-3.96
80.2,-0.05,-0.02,-0.07,-8.98,0.13,-3.96
80.31,-0.05,0.03,0.05,-8.99,0.14,-3.97
80.42,-0.03,0.01,-0.04,-8.97,0.15,-3.96
80.54,-0.02,0.03,-0.01,-8.98,0.15,-3.97
80.65,-0.02,-0.0,0.02,-8.98,0.14,-3.98
80.77,-0.02,0.04,0.02,-8.98,0.14,-3.95
80.88,-0.05,-0.04,0.02,-8.98,0.15,-3.97
81.0,-0.02,-0.04,-0.03,-8.98,0.13,-3.97
81.11,-0.02,-0.02,0.03,-8.98,0.14,-3.96
81.22,-0.03,0.03,-0.04,-8.99,0.12,-3.97
81.34,0.03,-0.05,0.05,-8.98,0.14,-3.96
81.45,-0.02,-0.02,0.0,-8.98,0.14,-3.97
81.57,0.03,-0.05,0.08,-8.98,0.14,-3.96
81.68,-0.02,-0.02,0.0,-8.97,0.14,-3.98
81.79,-0.03,-0.05,0.02,-8.98,0.13,-3.95
81.91,-0.02,0.01,0.02,-8.97,0.14,-3.96
82.02,-0.05,-0.0,-0.03,-8.99,0.14,-3.94
82.14,-0.06,0.01,-0.04,-8.98,0.14,-3.97
82.25,-0.05,-0.0,-0.03,-8.98,0.14,-3.98
82.36,-0.0,0.01,0.03,-8.98,0.16,-3.97
82.48,-0.05,-0.02,-0.01,-8.98,0.14,-3.98
82.59,0.01,-0.04,0.05,-8.98,0.13,-3.95
82.71,-0.0,-0.02,0.09,-9.0,0.14,-3.96
82.82,-0.02,0.01,-0.06,-8.99,0.13,-3.96
82.94,-0.02,-0.02,-0.04,-8.98,0.13,-3.95
83.05,-0.03,0.03,0.0,-8.98,0.16,-3.97
83.16,-0.05,-0.02,-0.01,-8.99,0.15,-3.98
83.28,-0.03,-0.02,-0.01,-8.97,0.14,-3.97
83.39,0.01,-0.05,0.14,-8.98,0.13,-3.95
83.51,-0.0,-0.02,0.08,-9.0,0.13,-3.98
83.62,-0.0,-0.02,0.02,-8.98,0.15,-3.96
83.73,-0.05,-0.0,-0.06,-8.98,0.14,-3.96
83.85,-0.06,0.03,-0.12,-8.98,0.13,-3.95
83.96,-0.0,0.03,0.02,-8.98,0.15,-3.96
84.08,0.01,-0.05,0.09,-8.97,0.15,-3.98
84.19,0.03,-0.0,0.06,-8.96,0.13,-3.95
84.3,0.01,0.04,-0.01,-8.97,0.14,-3.98
84.42,-0.0,-0.02,0.0,-8.98,0.13,-3.95
84.53,0.04,0.03,0.12,-8.98,0.14,-3.97
84.65,-0.03,-0.04,-0.06,-8.98,0.15,-3.99
84.76,-0.03,-0.02,-0.04,-8.99,0.13,-3.96
84.88,0.01,-0.0,0.06,-8.99,0.15,-3.99
84.99,-0.03,0.03,-0.09,-8.98,0.14,-3.95
85.1,-0.0,0.04,0.03,-8.99,0.14,-3.97
85.22,0.03,-0.07,0.12,-8.98,0.14,-3.97
85.33,-0.0,0.01,0.03,-8.98,0.14,-3.95
85.45,-0.05,-0.04,0.02,-8.98,0.13,-3.98
85.56,-0.03,-0.05,0.05,-8.98,0.13,-3.96
85.68,-0.02,0.03,0.0,-8.98,0.14,-3.97
85.79,-0.02,0.01,0.0,-8.98,0.15,-3.98
85.9,-0.0,0.03,0.05,-8.97,0.14,-3.97
86.02,-0.03,-0.0,-0.06,-8.99,0.15,-3.97
86.13,0.01,-0.04,0.02,-8.99,0.13,-3.97
86.25,-0.02,-0.02,0.06,-8.97,0.15,-3.96
86.36,0.01,0.01,-0.01,-8.98,0.14,-3.97
86.47,-0.11,-0.05,-0.2,-8.98,0.13,-3.96
86.59,-0.03,-0.05,0.05,-8.98,0.14,-3.96
86.7,-0.05,0.03,-0.09,-8.97,0.13,-3.96
86.82,-0.0,-0.04,-0.04,-9.0,0.15,-3.98
86.93,0.01,0.03,0.11,-8.98,0.15,-3.96
87.04,-0.02,0.01,0.02,-8.99,0.15,-3.98
87.16,-0.08,0.01,0.0,-8.99,0.14,-3.95
87.27,-0.0,0.03,0.06,-8.98,0.14,-3.95
87.39,-0.02,-0.0,-0.06,-8.98,0.15,-4.0
87.5,-0.06,0.01,-0.12,-8.99,0.15,-3.96
87.61,-0.0,0.03,0.06,-8.98,0.14,-3.98
87.73,-0.0,0.01,0.03,-8.98,0.15,-3.98
87.84,-0.02,-0.05,0.0,-8.98,0.13,-3.96
87.96,0.03,0.01,0.09,-8.98,0.13,-3.97
88.07,-0.03,-0.0,-0.01,-8.96,0.14,-3.96
88.18,-0.03,-0.02,0.0,-8.98,0.14,-3.98
88.3,0.01,0.03,0.08,-8.99,0.15,-3.99
88.41,-0.05,0.06,-0.03,-8.98,0.14,-3.95
88.53,-0.05,0.01,-0.1,-8.98,0.14,-3.96
88.64,0.03,-0.07,0.11,-8.98,0.15,-3.97
88.75,-0.0,0.03,-0.04,-8.99,0.14,-3.97
88.87,-0.02,-0.0,-0.03,-8.98,0.16,-3.97
88.98,-0.0,0.03,0.0,-8.97,0.13,-3.97
89.1,0.07,0.04,0.25,-8.98,0.15,-3.96
89.21,-0.08,-0.02,-0.23,-8.99,0.13,-3.97
89.33,-0.0,-0.02,-0.06,-8.99,0.12,-3.98
89.44,-0.0,0.01,0.03,-8.99,0.14,-3.97
89.55,-0.05,-0.02,-0.13,-8.98,0.14,-3.96
89.67,-0.03,-0.0,0.0,-8.98,0.13,-3.97
89.78,-0.02,-0.02,0.08,-8.98,0.14,-3.98
89.9,-0.06,-0.0,-0.06,-8.98,0.14,-3.98
90.01,-0.02,-0.0,0.08,-8.98,0.14,-3.96
90.12,0.01,-0.02,0.11,-8.98,0.13,-3.96
90.24,0.01,-0.02,0.06,-8.98,0.13,-3.95
90.35,-0.02,-0.04,0.0,-9.01,0.14,-3.97
90.47,-0.06,-0.0,-0.06,-8.98,0.14,-3.95
90.58,0.03,-0.02,0.08,-8.97,0.14,-3.98
90.69,-0.03,0.01,0.0,-8.98,0.14,-3.98
90.81,-0.03,-0.02,-0.01,-8.98,0.13,-3.95
90.92,0.01,-0.0,0.03,-8.99,0.14,-3.96
91.04,-0.03,-0.02,-0.03,-8.99,0.15,-3.97
91.15,-0.03,-0.05,-0.01,-8.99,0.14,-3.96
91.27,-0.0,-0.02,0.08,-8.96,0.12,-3.96
91.38,-0.02,-0.04,0.02,-8.99,0.13,-3.98
91.5,0.01,-0.04,0.02,-8.98,0.15,-3.97
91.61,-0.02,0.01,-0.03,-8.98,0.14,-3.96
91.72,-0.03,-0.02,0.02,-8.97,0.13,-3.95
91.84,-0.02,-0.04,-0.01,-8.99,0.14,-3.98
91.95,-0.02,-0.04,0.03,-8.97,0.14,-3.95
92.06,-0.05,-0.0,-0.03,-8.97,0.14,-3.95
92.18,-0.0,0.03,0.0,-8.99,0.13,-3.96
92.29,-0.0,0.01,0.05,-8.98,0.15,-4.0
92.41,-0.02,0.03,-0.01,-8.97,0.14,-3.98
92.52,-0.05,-0.1,-0.01,-8.98,0.15,-3.95
92.64,0.01,-0.04,0.12,-8.97,0.14,-3.95
92.75,-0.06,0.06,-0.1,-8.99,0.14,-3.95
92.86,-0.08,-0.04,-0.15,-8.98,0.14,-3.97
92.98,-0.03,-0.02,0.03,-8.99,0.15,-3.99
93.09,-0.05,-0.05,-0.04,-8.97,0.14,-3.97
93.21,-0.0,-0.0,0.02,-8.98,0.14,-3.98
93.32,-0.0,-0.05,0.0,-8.99,0.14,-3.98
93.43,-0.03,-0.0,-0.03,-8.98,0.14,-3.97
93.55,-0.02,0.04,0.03,-8.99,0.14,-3.96
93.66,-0.02,0.03,-0.03,-8.98,0.14,-3.97
93.78,0.01,-0.0,0.08,-9.0,0.14,-3.97
93.89,-0.02,-0.0,-0.03,-8.98,0.15,-3.96
94.01,-0.05,0.03,-0.1,-8.99,0.15,-3.96
94.12,-0.05,0.01,0.0,-8.98,0.14,-3.96
94.23,0.01,0.03,0.06,-8.98,0.15,-3.96
94.35,0.03,0.09,0.0,-8.97,0.14,-3.98
94.46,-0.09,-0.08,-0.1,-8.97,0.12,-3.97
94.58,-0.0,-0.08,0.08,-8.99,0.14,-3.96
94.69,-0.02,-0.13,0.03,-8.99,0.14,-3.97
94.8,-0.02,0.06,0.0,-8.99,0.14,-3.97
94.92,-0.08,-0.0,-0.13,-9.0,0.14,-3.95
95.03,-0.03,-0.05,-0.01,-8.99,0.14,-3.97
95.15,-0.05,-0.02,-0.1,-8.99,0.12,-3.95
95.26,-0.14,-0.05,-0.21,-8.98,0.14,-3.99
95.38,-0.02,0.04,0.05,-8.97,0.14,-3.99
95.49,-0.06,0.04,-0.09,-8.99,0.15,-3.96
95.6,-0.0,0.04,0.03,-8.99,0.13,-3.97
95.72,-0.03,-0.07,0.08,-8.97,0.14,-3.96
95.83,-0.05,-0.04,-0.06,-8.99,0.14,-3.97
95.95,-0.05,0.04,-0.07,-8.99,0.14,-3.97
96.06,-0.0,0.06,-0.04,-8.97,0.15,-3.96
96.18,-0.06,-0.05,-0.04,-8.99,0.14,-3.97
96.29,0.06,0.01,0.14,-8.97,0.14,-3.98
96.4,-0.06,-0.05,-0.07,-8.97,0.13,-3.97
96.52,-0.0,-0.04,0.03,-8.97,0.13,-3.97
96.63,0.03,-0.02,0.06,-8.99,0.14,-3.95
96.75,-0.02,-0.07,0.0,-8.99,0.13,-3.96
96.86,0.01,-0.0,0.02,-8.98,0.14,-3.94
96.97,-0.05,0.07,-0.09,-8.97,0.13,-3.96
97.09,0.07,-0.0,0.08,-8.98,0.14,-3.96
97.2,-0.02,-0.0,-0.04,-9.0,0.15,-3.97
97.32,0.03,-0.05,0.16,-8.98,0.12,-3.96
97.43,-0.08,-0.0,-0.13,-8.99,0.14,-3.95
97.54,-0.03,0.01,-0.06,-8.97,0.12,-3.98
97.66,0.04,-0.04,0.08,-8.98,0.14,-3.95
97.77,-0.03,-0.08,-0.07,-8.98,0.14,-3.95
97.89,-0.08,-0.07,-0.12,-8.98,0.15,-3.98
98.0,-0.0,0.03,0.06,-8.98,0.16,-3.99
98.12,-0.02,-0.0,0.02,-8.98,0.14,-3.96
98.23,-0.0,-0.02,0.03,-9.0,0.16,-3.95
98.34,-0.02,0.03,-0.06,-8.96,0.14,-3.96
98.46,0.01,-0.05,0.08,-8.98,0.13,-3.98
98.57,0.01,-0.05,-0.01,-8.98,0.14,-3.97
98.69,0.03,-0.02,0.09,-8.98,0.14,-3.95
98.8,-0.0,0.03,-0.01,-8.96,0.14,-3.97
98.91,-0.03,-0.07,-0.06,-8.97,0.14,-3.97
99.03,0.04,-0.05,0.08,-8.97,0.14,-3.98
99.14,0.01,-0.0,0.02,-8.98,0.14,-3.96
99.26,-0.02,-0.0,-0.01,-8.99,0.14,-3.97
99.37,0.1,0.06,0.19,-8.97,0.14,-3.94
99.48,-0.12,-0.05,-0.24,-8.99,0.13,-3.99
99.6,0.04,0.01,0.09,-8.98,0.14,-3.96
99.71,-0.03,-0.11,0.03,-9.0,0.13,-3.96
99.83,-0.02,0.13,-0.01,-8.96,0.14,-3.97
99.94,-0.08,0.04,-0.13,-9.0,0.13,-3.96
100.06,-0.02,-0.0,0.02,-8.99,0.15,-3.98
100.17,0.06,-0.02,0.14,-8.98,0.14,-3.99
100.28,-0.08,-0.0,-0.2,-8.98,0.15,-3.97
100.4,0.01,-0.04,0.05,-8.99,0.16,-3.97
100.51,-0.02,-0.02,-0.12,-8.98,0.15,-3.96
100.63,-0.05,-0.1,-0.03,-8.98,0.14,-3.96
100.74,-0.05,0.13,-0.06,-8.97,0.15,-3.96
100.86,-0.09,0.03,-0.17,-8.99,0.14,-3.99
100.97,-0.0,-0.07,0.02,-8.97,0.14,-3.96
101.08,-0.03,-0.04,-0.01,-8.98,0.15,-3.95
101.2,0.06,-0.04,0.17,-9.0,0.13,-3.96
101.31,-0.0,-0.02,-0.01,-8.99,0.14,-3.95
101.43,0.04,-0.0,0.22,-8.99,0.14,-3.97
101.54,-0.08,-0.05,-0.13,-8.98,0.14,-3.96
101.66,0.09,-0.05,0.17,-8.97,0.15,-3.95
101.77,-0.05,0.03,-0.1,-8.97,0.14,-3.95
101.88,0.03,0.07,0.02,-8.98,0.13,-3.95
102.0,-0.02,0.01,-0.07,-8.97,0.13,-3.97
102.11,-0.03,-0.02,-0.03,-8.98,0.13,-3.97
102.23,0.03,0.01,0.2,-8.98,0.15,-3.97
102.34,-0.02,-0.02,0.02,-8.97,0.13,-3.97
102.46,-0.05,-0.07,-0.06,-8.97,0.15,-3.96
102.57,0.03,-0.02,0.16,-8.97,0.15,-3.97
102.68,-0.02,0.01,-0.01,-8.98,0.14,-3.94
102.8,-0.0,-0.0,0.0,-8.97,0.16,-3.97
102.91,-0.05,-0.0,-0.06,-8.97,0.13,-3.95
103.03,-0.0,0.04,-0.03,-8.98,0.14,-3.99
103.14,-0.02,0.01,0.02,-8.98,0.13,-4.0
103.26,-0.0,0.04,0.0,-8.96,0.13,-3.98
103.37,-0.05,0.01,-0.04,-8.99,0.13,-3.95
103.48,-0.02,-0.0,-0.03,-8.99,0.13,-3.98
103.6,-0.03,0.01,-0.1,-8.97,0.13,-3.96
103.71,0.04,-0.05,0.11,-8.98,0.13,-3.96
103.83,0.01,-0.1,0.08,-8.98,0.14,-3.97
103.94,0.01,0.03,0.06,-8.98,0.14,-3.96
104.06,-0.03,0.03,-0.06,-9.0,0.15,-3.96
104.17,-0.08,0.04,-0.2,-8.97,0.12,-3.95
104.29,-0.0,-0.0,-0.06,-8.99,0.13,-3.97
104.4,-0.09,-0.05,-0.12,-8.98,0.14,-3.99
104.51,0.03,-0.0,0.11,-8.98,0.14,-3.99
104.63,0.09,0.01,0.26,-8.97,0.15,-3.99
104.74,-0.03,0.01,-0.01,-8.97,0.14,-3.96
104.86,-0.06,-0.05,-0.12,-9.0,0.13,-3.97
104.97,0.01,0.04,0.0,-8.98,0.14,-3.98
105.08,-0.05,-0.05,-0.09,-8.98,0.14,-3.97
105.2,-0.02,-0.05,-0.13,-8.98,0.15,-3.97
105.31,-0.05,0.07,-0.12,-8.98,0.14,-3.95
105.43,0.07,0.09,0.2,-8.99,0.13,-3.98
105.54,0.03,-0.07,0.14,-8.99,0.15,-3.98
105.66,0.04,-0.05,0.08,-8.98,0.14,-3.96
105.77,0.07,-0.0,0.19,-8.98,0.14,-3.96
105.88,-0.03,0.03,0.0,-8.98,0.14,-3.94
106.0,0.07,-0.08,0.28,-8.98,0.13,-3.96
106.11,-0.06,-0.07,-0.09,-8.98,0.15,-3.96
106.23,-0.03,-0.08,-0.06,-8.97,0.13,-3.96
106.34,-0.0,0.07,0.0,-8.98,0.13,-3.98
106.46,-0.05,-0.0,-0.03,-8.98,0.14,-3.97
106.57,0.06,-0.14,0.23,-8.99,0.14,-3.98
106.68,-0.11,-0.04,-0.12,-8.98,0.16,-3.95
106.8,-0.05,0.03,-0.06,-8.97,0.13,-3.96
106.91,0.04,-0.0,0.12,-8.98,0.14,-3.95
107.03,-0.08,-0.08,-0.1,-8.98,0.14,-3.98
107.14,-0.05,-0.04,-0.06,-8.98,0.13,-3.95
107.26,-0.03,0.06,-0.07,-8.98,0.14,-3.97
107.37,-0.05,0.03,-0.18,-8.97,0.15,-3.96
107.48,-0.02,0.18,-0.1,-8.98,0.13,-3.96
107.6,0.04,0.07,0.09,-8.97,0.14,-3.97
107.71,-0.03,-0.08,-0.07,-8.99,0.14,-3.96
107.83,0.01,0.07,-0.01,-8.99,0.14,-3.95
107.94,-0.02,0.04,0.02,-8.98,0.14,-3.94
108.06,-0.09,-0.04,-0.29,-8.99,0.12,-3.99
108.17,0.01,-0.07,0.05,-8.98,0.14,-3.98
108.28,0.03,-0.0,0.08,-8.97,0.13,-3.96
108.4,0.04,-0.02,0.16,-8.97,0.14,-3.97
108.51,-0.02,-0.04,0.02,-8.98,0.13,-3.95
108.63,-0.0,-0.0,0.06,-8.99,0.15,-3.97
108.74,0.01,-0.05,0.05,-8.98,0.13,-3.97
108.86,-0.05,-0.0,-0.03,-8.98,0.15,-3.97
108.97,-0.0,-0.0,0.03,-8.98,0.15,-3.96
109.08,-0.0,-0.02,0.05,-8.99,0.14,-3.94
109.2,-0.09,-0.04,-0.15,-8.97,0.15,-3.99
109.31,0.06,-0.04,0.14,-8.98,0.14,-3.96
109.43,0.03,0.03,0.08,-8.99,0.14,-3.97
109.54,-0.05,-0.0,0.0,-8.96,0.14,-3.95
109.66,-0.0,-0.02,0.0,-8.97,0.13,-3.97
109.77,-0.02,0.01,-0.04,-8.99,0.15,-3.96
109.88,-0.09,-0.05,-0.24,-8.98,0.14,-3.95
110.0,-0.03,-0.0,-0.07,-8.98,0.14,-3.95
110.11,0.06,-0.04,0.16,-8.98,0.14,-3.98
110.23,-0.02,-0.04,0.03,-8.99,0.13,-3.97
110.34,-0.0,0.06,-0.01,-9.0,0.15,-3.96
110.46,-0.02,0.12,-0.06,-8.99,0.14,-3.95
110.57,0.04,0.16,-0.07,-8.96,0.14,-3.97
110.68,-0.03,-0.11,0.02,-8.98,0.12,-3.95
110.8,0.06,-0.16,0.29,-8.98,0.12,-3.95
110.91,-0.02,0.07,-0.01,-8.98,0.15,-3.97
111.03,0.01,0.1,0.02,-8.98,0.14,-3.95
111.14,-0.11,-0.05,-0.15,-9.0,0.13,-3.94
111.26,-0.02,-0.1,0.06,-8.98,0.14,-3.98
111.37,-0.0,-0.04,-0.03,-8.97,0.15,-3.97
111.48,-0.02,-0.0,0.0,-8.98,0.14,-3.94
111.6,-0.05,0.03,-0.12,-8.97,0.13,-3.96
111.71,0.03,-0.04,0.11,-8.98,0.13,-3.98
111.83,-0.06,-0.02,-0.12,-8.98,0.12,-3.96
111.94,0.03,0.07,0.11,-8.98,0.14,-3.96
112.06,-0.08,0.01,-0.12,-8.99,0.14,-3.99
112.17,0.03,-0.02,0.12,-8.99,0.14,-3.97
112.29,-0.02,-0.04,0.03,-8.98,0.13,-3.96
112.4,-0.0,0.01,-0.01,-8.98,0.15,-3.98
112.51,-0.08,-0.02,-0.15,-8.99,0.14,-3.96
112.63,-0.03,-0.07,0.05,-8.97,0.14,-3.94
112.74,0.03,0.01,0.08,-8.98,0.13,-3.96
112.86,-0.03,-0.04,-0.1,-8.98,0.14,-3.95
112.97,-0.0,-0.04,0.08,-8.98,0.14,-3.95
113.08,0.01,-0.04,0.06,-8.99,0.13,-3.96
113.2,0.01,-0.0,0.02,-8.98,0.13,-3.96
113.31,-0.0,-0.05,0.08,-8.99,0.14,-3.95
113.43,0.03,-0.1,0.12,-8.98,0.14,-3.94
113.54,-0.02,-0.04,0.06,-8.99,0.14,-3.96
113.66,-0.0,0.01,-0.09,-8.99,0.12,-3.96
113.77,-0.06,-0.04,-0.1,-9.0,0.14,-3.97
113.89,0.1,0.04,0.26,-8.97,0.14,-3.95
114.0,-0.06,0.03,-0.12,-9.0,0.15,-3.97
114.11,-0.06,-0.04,-0.1,-8.99,0.15,-3.96
114.23,-0.0,0.01,0.09,-8.98,0.15,-3.97
114.34,-0.08,-0.0,-0.09,-8.98,0.14,-3.96
114.46,-0.03,-0.04,0.02,-8.98,0.14,-3.97
114.57,-0.03,-0.0,-0.07,-8.98,0.14,-3.96
114.68,-0.03,-0.02,-0.07,-8.98,0.13,-3.97
114.8,0.06,-0.0,0.11,-8.98,0.14,-3.96
114.91,-0.02,0.07,-0.04,-8.98,0.14,-3.95
115.03,-0.03,-0.02,0.02,-8.98,0.15,-3.99
115.14,-0.02,-0.0,0.05,-8.99,0.13,-3.97
115.26,-0.05,-0.05,-0.09,-8.98,0.14,-3.97
115.37,0.01,-0.05,0.05,-8.99,0.14,-3.98
115.49,0.06,-0.08,0.2,-8.99,0.14,-3.96
115.6,-0.02,-0.0,0.06,-8.98,0.14,-3.97
115.71,-0.11,0.03,-0.32,-8.98,0.13,-3.98
115.83,-0.06,-0.0,-0.03,-8.99,0.13,-3.98
115.94,-0.0,0.03,0.05,-8.98,0.14,-3.97
116.06,-0.02,-0.0,0.0,-8.98,0.14,-3.96
116.17,-0.0,0.06,-0.01,-8.98,0.14,-3.95
116.29,-0.03,-0.02,0.0,-8.97,0.14,-3.98
116.4,-0.03,-0.04,-0.1,-8.99,0.14,-3.97
116.51,-0.02,-0.0,0.02,-8.99,0.15,-3.96
116.63,-0.02,0.03,-0.09,-8.98,0.13,-3.95
116.74,-0.05,-0.0,-0.03,-8.98,0.12,-3.97
116.86,0.03,-0.0,0.06,-8.98,0.13,-3.95
116.97,0.03,-0.0,0.03,-8.98,0.13,-3.96
117.09,-0.06,-0.02,-0.12,-8.99,0.13,-3.99
117.2,0.03,0.01,0.05,-8.96,0.15,-3.97
117.31,-0.09,-0.0,-0.09,-8.98,0.14,-3.96
117.43,-0.0,0.01,0.02,-8.98,0.12,-3.95
117.54,-0.02,-0.02,0.02,-8.97,0.14,-3.97
117.66,-0.02,-0.04,0.06,-8.98,0.14,-3.94
117.77,-0.02,0.01,0.05,-8.98,0.14,-3.94
117.89,-0.02,-0.04,-0.09,-8.97,0.13,-3.95
118.0,-0.03,-0.04,0.02,-8.99,0.14,-3.97
118.11,-0.0,-0.04,0.11,-8.99,0.14,-3.97
118.23,-0.02,-0.02,0.0,-8.98,0.15,-3.98
118.34,0.04,0.03,0.08,-8.99,0.14,-3.96
118.46,-0.09,-0.02,-0.23,-8.98,0.14,-3.96
118.57,0.03,0.01,0.14,-8.97,0.14,-3.97
118.69,-0.0,0.01,0.02,-8.98,0.14,-3.95
118.8,-0.05,-0.0,-0.09,-8.98,0.13,-3.97
118.91,-0.03,-0.0,-0.04,-8.97,0.12,-3.97
119.03,0.03,0.01,0.09,-8.99,0.15,-3.98
119.14,0.09,0.06,0.2,-8.97,0.15,-3.98
119.26,-0.05,-0.04,-0.1,-8.99,0.14,-3.97
119.37,-0.02,-0.02,-0.06,-9.0,0.13,-3.97
119.49,0.06,-0.02,0.16,-8.98,0.13,-3.96
119.6,-0.02,-0.1,-0.04,-8.99,0.14,-3.96
119.71,-0.06,0.06,-0.1,-8.98,0.14,-3.95
119.83,0.07,0.12,0.14,-8.96,0.15,-3.98
119.94,-0.14,-0.0,-0.35,-8.99,0.13,-3.97
120.06,0.01,-0.0,0.03,-8.98,0.13,-3.97
120.17,-0.11,0.04,-0.29,-8.98,0.14,-3.98
120.29,0.03,-0.05,0.16,-8.99,0.15,-3.97
120.4,-0.03,-0.11,0.05,-8.99,0.14,-3.95
120.51,-0.09,0.07,-0.21,-8.98,0.15,-3.98
120.63,-0.0,-0.04,0.08,-8.98,0.15,-3.97
120.74,-0.09,-0.13,-0.13,-8.99,0.15,-3.94
120.86,0.61,-0.0,1.5,-8.98,0.15,-3.94
120.97,-0.05,0.41,-0.35,-8.98,0.14,-3.96
121.09,0.01,0.38,-0.12,-8.96,0.14,-3.96
121.2,0.04,-0.31,0.28,-8.98,0.12,-3.94
121.31,-0.11,0.09,-0.24,-9.0,0.16,-3.98
121.43,0.23,0.15,0.57,-8.96,0.15,-3.97
121.54,-0.22,0.07,-0.56,-8.99,0.14,-3.98
121.66,0.04,-0.04,0.11,-8.99,0.12,-3.95
121.77,0.01,0.04,0.03,-8.97,0.14,-3.98
121.89,-0.09,-0.04,-0.2,-8.98,0.14,-3.96
122.0,-0.12,0.01,-0.24,-8.98,0.14,-3.97
122.11,0.1,-0.0,0.29,-8.99,0.14,-3.96
122.23,-0.11,0.01,-0.2,-8.99,0.13,-3.97
122.34,-0.06,-0.08,0.03,-8.99,0.12,-3.98
122.46,0.12,-0.08,0.35,-9.0,0.13,-3.95
122.57,-0.17,0.18,-0.58,-8.97,0.15,-3.96
122.69,-0.0,0.01,0.02,-8.98,0.15,-3.97
122.8,-0.02,-0.08,0.02,-8.99,0.13,-3.94
122.91,0.01,-0.11,0.03,-8.96,0.15,-3.97
123.03,-0.17,-0.11,-0.29,-8.99,0.13,-3.96
123.14,0.04,0.04,0.19,-8.98,0.13,-3.97
123.26,-0.03,0.03,0.03,-8.98,0.13,-3.95
123.37,-0.11,0.06,-0.21,-8.99,0.14,-3.96
123.49,-0.02,-0.11,0.12,-8.98,0.13,-3.97
123.6,0.09,-0.04,0.17,-8.99,0.15,-3.97
123.71,-0.03,0.01,-0.1,-8.99,0.14,-3.98
123.83,-0.37,-0.07,-0.81,-8.98,0.14,-3.98
123.94,0.09,0.01,0.2,-8.99,0.12,-3.96
124.06,0.01,0.06,0.02,-8.98,0.15,-3.98
124.17,-0.06,-0.07,-0.15,-8.98,0.14,-3.94
124.29,0.03,-0.02,0.05,-8.98,0.13,-3.95
124.4,0.06,0.03,0.14,-8.97,0.13,-3.96
124.51,-0.14,-0.02,-0.3,-8.97,0.15,-3.97
124.63,-0.08,-0.04,-0.09,-8.98,0.13,-3.95
124.74,0.07,0.12,0.12,-8.98,0.13,-3.98
124.86,-0.02,0.06,-0.13,-9.0,0.15,-3.99
124.97,0.21,0.01,0.6,-8.97,0.15,-3.99
125.08,-0.57,-0.1,-1.37,-8.98,0.13,-3.98
125.2,0.07,-0.08,0.28,-9.0,0.13,-3.95
125.31,-0.03,0.12,-0.12,-8.97,0.15,-3.97
125.43,0.07,-0.08,0.12,-8.98,0.14,-3.97
125.54,0.18,0.04,0.48,-8.96,0.14,-3.98
125.66,0.17,0.1,0.28,-8.99,0.13,-3.95
125.77,-0.23,-0.11,-0.53,-8.99,0.14,-3.97
125.88,0.06,0.03,0.25,-8.97,0.13,-3.96
126.0,-0.14,0.04,-0.24,-9.02,0.13,-3.96
126.11,-0.02,-0.04,-0.09,-8.96,0.15,-3.97
126.23,-0.03,-0.11,0.03,-8.98,0.13,-3.97
126.34,-0.0,-0.08,-0.01,-9.0,0.13,-3.99
126.46,-0.17,0.01,-0.36,-8.99,0.15,-3.98
126.57,-0.09,0.04,-0.2,-8.98,0.14,-3.97
126.68,0.09,-0.04,0.28,-8.98,0.14,-3.96
126.8,-0.12,-0.07,-0.3,-8.99,0.15,-3.96
126.91,-0.0,-0.05,0.08,-8.99,0.14,-3.97
127.03,-0.05,0.03,0.0,-8.98,0.14,-3.97
127.14,-0.08,0.09,-0.07,-8.98,0.14,-3.97
127.26,-0.05,-0.0,-0.2,-8.97,0.15,-3.99
127.37,0.01,0.03,-0.03,-8.98,0.14,-3.97
127.48,0.12,0.13,0.35,-8.98,0.14,-3.97
127.6,-0.17,-0.14,-0.32,-8.98,0.14,-3.97
127.71,0.23,-0.16,0.49,-8.98,0.13,-3.98
127.83,-0.15,-0.0,-0.27,-8.98,0.13,-3.97
127.94,-0.12,-0.07,-0.2,-8.98,0.13,-3.96
128.06,0.06,-0.05,0.11,-8.98,0.12,-3.97
128.17,0.24,0.32,0.57,-8.98,0.14,-3.96
128.28,-0.17,-0.2,-0.3,-8.98,0.12,-3.96
128.4,-0.15,0.13,-0.49,-8.96,0.17,-3.97
128.51,-0.14,0.13,-0.36,-8.99,0.12,-3.98
128.63,-0.12,0.04,-0.26,-8.99,0.14,-3.93
128.74,0.07,-0.02,0.12,-8.98,0.14,-3.99
128.86,-0.14,-0.04,-0.27,-9.0,0.12,-3.99
128.97,0.21,-0.0,0.55,-8.98,0.15,-3.96
129.09,-0.03,-0.0,-0.07,-8.98,0.15,-3.98
129.2,-0.06,-0.07,0.0,-8.97,0.12,-3.95
129.31,-0.17,0.04,-0.3,-8.98,0.15,-3.97
129.43,-0.05,-0.07,-0.12,-8.99,0.14,-3.97
129.54,0.03,-0.04,-0.04,-8.97,0.13,-3.97
129.66,0.01,0.07,0.12,-8.99,0.13,-3.94
129.77,0.03,0.03,0.16,-8.98,0.14,-3.96
129.88,-0.14,0.01,-0.41,-8.98,0.15,-3.99
130.0,-0.09,-0.36,-0.07,-9.01,0.14,-3.94
130.11,0.09,0.03,0.31,-8.97,0.14,-3.93
130.23,-0.03,0.12,-0.12,-8.96,0.13,-3.96
130.34,-0.14,0.09,-0.29,-8.98,0.12,-3.95
130.46,0.1,0.04,0.45,-8.98,0.16,-3.97
130.57,-0.31,-0.05,-0.53,-8.97,0.12,-3.95
130.68,0.12,0.12,0.26,-8.97,0.13,-3.99
130.8,0.04,0.01,0.17,-8.97,0.13,-3.97
130.91,-0.06,-0.05,-0.15,-8.99,0.13,-3.96
131.03,-0.03,-0.17,0.12,-8.98,0.12,-3.94
131.14,0.01,0.01,0.05,-8.99,0.15,-3.98
131.26,-0.05,0.09,-0.24,-8.97,0.14,-3.97
131.37,0.06,0.13,0.14,-8.98,0.14,-3.97
131.48,-0.0,0.03,0.02,-8.98,0.14,-3.98
131.6,0.1,-0.13,0.29,-8.99,0.13,-3.95
131.71,-0.17,0.09,-0.41,-8.98,0.13,-3.96
131.83,-0.2,0.04,-0.39,-8.99,0.13,-3.96
131.94,0.12,-0.0,0.29,-8.99,0.15,-3.97
132.06,0.1,0.09,0.2,-8.99,0.14,-3.96
132.17,-0.11,0.16,-0.32,-8.99,0.12,-3.95
132.28,0.17,0.18,0.38,-8.97,0.16,-3.97
132.4,0.07,-0.11,0.23,-8.99,0.13,-3.97
132.51,-0.12,-0.04,-0.26,-8.97,0.14,-3.96
132.63,0.23,0.13,0.45,-8.98,0.13,-3.97
132.74,-0.26,0.25,-0.59,-8.99,0.14,-3.97
132.85,-0.03,-0.05,-0.04,-8.99,0.13,-3.97
132.97,-0.03,-0.05,-0.07,-8.98,0.13,-3.96
133.08,0.12,-0.05,0.31,-8.96,0.14,-3.98
133.2,-0.25,-0.07,-0.42,-8.99,0.13,-3.97
133.31,0.04,0.04,0.02,-8.99,0.15,-3.95
133.43,-0.23,0.03,-0.49,-8.98,0.15,-3.96
133.54,-0.08,-0.07,-0.1,-8.99,0.12,-3.95
133.66,-0.29,0.01,-0.65,-8.98,0.14,-3.98
133.77,0.15,0.01,0.4,-8.99,0.15,-3.97
133.88,-0.02,0.15,-0.12,-8.99,0.15,-3.98
134.0,-0.05,-0.17,-0.07,-8.98,0.13,-3.96
134.11,0.03,-0.04,0.17,-9.0,0.13,-3.96
134.23,-0.02,0.15,-0.07,-8.98,0.14,-3.96
134.34,-0.12,-0.11,-0.3,-9.0,0.14,-3.97
134.46,0.03,0.01,0.14,-8.98,0.14,-3.96
134.57,0.04,0.09,0.11,-8.98,0.14,-3.96
134.68,-0.12,0.03,-0.26,-8.98,0.14,-3.96
134.8,0.06,0.06,0.11,-8.98,0.13,-3.96
134.91,0.01,-0.0,0.05,-8.98,0.14,-3.94
135.02,0.04,-0.13,0.16,-8.99,0.12,-3.97
135.14,-0.0,-0.02,-0.01,-8.98,0.13,-3.99
135.26,-0.09,0.03,-0.24,-8.99,0.15,-3.95
135.37,-0.06,0.03,-0.13,-8.97,0.13,-3.95
135.48,-0.05,-0.1,-0.09,-8.99,0.13,-3.95
135.6,-0.0,-0.13,0.05,-8.98,0.14,-3.98
135.71,-0.02,0.12,-0.04,-8.96,0.12,-3.96
135.83,-0.26,0.15,-0.56,-8.97,0.14,-3.96
135.94,0.15,-0.13,0.51,-8.99,0.14,-3.98
136.05,0.04,-0.2,0.22,-8.98,0.13,-3.97
136.17,0.03,-0.05,0.08,-8.98,0.13,-3.94
136.28,-0.02,-0.08,0.16,-8.99,0.13,-3.96
136.4,0.01,0.09,-0.03,-8.97,0.13,-3.98
136.51,-0.09,0.16,-0.2,-8.98,0.15,-3.97
136.63,0.03,0.01,0.12,-9.0,0.12,-3.95
136.74,0.09,0.09,0.29,-8.97,0.14,-3.99
136.85,0.09,-0.11,0.22,-8.97,0.13,-3.98
136.97,-0.09,-0.11,-0.07,-8.97,0.14,-3.97
137.08,-0.2,-0.13,-0.41,-8.99,0.12,-3.97
137.2,0.06,0.09,0.16,-8.97,0.13,-3.96
137.31,-0.14,-0.0,-0.41,-8.98,0.13,-3.97
137.43,-0.05,-0.02,-0.04,-8.98,0.14,-3.95
137.54,0.14,-0.04,0.31,-8.97,0.14,-3.97
137.65,-0.08,-0.08,-0.13,-8.97,0.13,-3.96
137.77,0.01,0.03,0.05,-8.99,0.13,-3.95
137.88,-0.0,-0.02,-0.04,-8.99,0.14,-3.99
138.0,-0.05,-0.1,-0.15,-8.98,0.12,-3.96
138.11,0.18,-0.28,0.55,-9.02,0.18,-4.0
138.23,-0.6,0.16,-1.55,-8.93,0.17,-4.02
138.34,-0.58,-0.1,-1.36,-9.0,0.13,-3.94
138.46,0.81,-0.23,2.23,-8.98,0.14,-3.95
138.57,-0.2,0.09,-0.5,-8.97,0.18,-3.99
138.68,-0.03,-0.1,0.05,-8.97,0.15,-3.96
138.8,0.01,0.04,0.09,-8.99,0.12,-3.94
138.91,-0.06,0.12,-0.21,-8.98,0.14,-3.97
143.02,-0.12,-0.13,-0.24,-9.0,0.14,-3.95
143.14,0.04,-0.0,0.11,-8.98,0.13,-3.97
143.25,-0.02,0.06,-0.13,-8.99,0.14,-3.99
143.37,-0.08,-0.02,-0.07,-8.98,0.14,-3.97
143.48,-0.09,-0.08,-0.04,-8.99,0.14,-3.96
143.6,0.06,-0.08,0.29,-8.99,0.14,-3.96
143.71,0.06,-0.11,0.25,-8.99,0.13,-3.95
143.83,-0.0,0.12,0.06,-8.97,0.14,-3.97
143.94,-0.11,-0.11,-0.18,-9.0,0.12,-3.95
144.05,0.14,-0.07,0.26,-8.97,0.14,-3.95
144.17,-0.05,0.07,0.02,-8.98,0.12,-3.99
144.28,0.03,0.06,0.09,-9.0,0.14,-3.95
144.4,0.04,-0.0,0.12,-8.98,0.14,-3.98
144.51,-0.14,-0.26,-0.24,-9.0,0.13,-3.98
144.63,0.06,0.03,0.14,-8.98,0.11,-3.95
144.74,-0.02,0.04,-0.01,-8.97,0.14,-3.96
144.85,0.03,-0.17,0.14,-9.0,0.15,-3.97
144.97,0.1,-0.02,0.25,-8.97,0.14,-3.98
145.08,-0.02,0.06,-0.01,-8.98,0.14,-3.96
145.2,-0.05,0.07,-0.23,-8.97,0.13,-3.97
145.31,-0.0,-0.05,0.14,-8.98,0.14,-3.99
145.42,0.01,-0.02,0.06,-8.97,0.13,-3.96
145.54,-0.08,0.06,-0.17,-8.97,0.13,-3.95
145.65,0.09,0.03,0.22,-8.99,0.13,-3.97
145.77,-0.15,0.12,-0.42,-8.97,0.13,-3.96
145.88,-0.09,-0.08,-0.13,-8.98,0.14,-3.97
146.0,0.2,-0.02,0.63,-8.97,0.14,-3.97
146.11,-0.05,0.01,-0.12,-8.97,0.13,-3.97
146.22,0.03,-0.05,0.08,-8.98,0.14,-3.97
146.34,-0.0,0.15,-0.09,-8.97,0.14,-3.97
146.45,0.39,0.12,0.95,-8.98,0.12,-3.94
146.57,-0.02,0.09,0.05,-8.98,0.15,-3.97
146.68,-0.09,-0.17,-0.27,-8.99,0.11,-3.97
146.8,0.03,-0.08,0.0,-8.99,0.13,-3.98
146.91,0.33,0.01,0.89,-8.98,0.12,-3.94
147.02,-0.06,0.06,-0.15,-8.97,0.13,-3.95
147.14,-0.05,-0.05,-0.03,-8.98,0.11,-3.95
147.25,-0.03,0.13,-0.12,-8.98,0.12,-3.97
147.37,-0.08,-0.13,-0.06,-8.99,0.13,-3.94
147.48,-0.09,0.04,-0.15,-8.98,0.14,-3.96
147.6,-0.03,-0.02,-0.01,-8.99,0.13,-3.98
147.71,-0.05,-0.1,-0.06,-8.98,0.14,-3.97
147.82,0.17,-0.11,0.46,-8.97,0.12,-3.93
147.94,-0.2,-0.0,-0.35,-8.98,0.16,-3.94
148.05,0.01,-0.11,0.08,-8.98,0.13,-3.97
148.17,-0.05,-0.07,-0.04,-8.99,0.13,-3.95
148.28,0.09,0.06,0.28,-8.98,0.14,-3.96
148.4,-0.02,0.06,-0.07,-8.99,0.14,-3.97
148.51,-0.06,0.03,-0.04,-8.98,0.11,-3.97
148.62,0.06,-0.08,0.19,-8.99,0.15,-3.96
148.74,0.01,-0.08,0.08,-8.98,0.14,-3.96
148.85,-0.05,-0.0,-0.1,-8.99,0.12,-3.98
148.97,0.03,0.18,0.05,-8.98,0.12,-3.97
149.08,-0.09,-0.17,-0.06,-8.99,0.14,-3.95
149.2,0.14,-0.05,0.23,-8.98,0.13,-3.95
149.31,-0.2,0.29,-0.49,-8.96,0.14,-3.97
149.43,0.06,-0.04,0.11,-9.0,0.12,-3.93
149.54,-0.02,-0.07,-0.1,-8.99,0.16,-3.98
149.65,-0.09,0.04,-0.2,-8.97,0.13,-3.97
149.77,-0.11,-0.07,-0.17,-8.99,0.14,-3.97
149.88,0.07,0.01,0.19,-8.97,0.15,-3.97
150.0,0.01,-0.07,0.0,-8.97,0.13,-3.96
150.11,-0.11,-0.19,-0.13,-8.98,0.14,-3.95
150.22,0.09,-0.04,0.19,-8.97,0.14,-3.96
150.34,0.01,0.03,0.02,-8.99,0.11,-3.97
150.45,-0.05,0.04,-0.07,-8.98,0.13,-3.97
150.57,-0.03,0.15,-0.03,-8.97,0.13,-3.95
150.68,0.18,0.09,0.38,-8.97,0.14,-3.94
150.8,-0.14,0.01,-0.29,-8.98,0.13,-3.98
150.91,-0.06,-0.11,0.0,-8.99,0.15,-3.97
151.02,0.21,-0.0,0.55,-8.97,0.15,-3.97
151.14,-0.09,0.01,-0.1,-8.97,0.13,-3.97
151.25,-0.15,-0.0,-0.32,-8.99,0.14,-3.96
151.37,0.04,0.1,0.06,-8.97,0.13,-3.95
151.48,-0.05,-0.0,-0.1,-8.98,0.14,-3.97
151.6,0.1,-0.04,0.25,-8.98,0.12,-3.95
151.71,0.09,0.13,0.19,-8.98,0.13,-3.97
151.82,0.03,0.13,0.03,-8.98,0.14,-3.97
151.94,0.03,-0.13,0.09,-9.0,0.13,-3.99
152.05,-0.08,-0.13,-0.15,-8.98,0.13,-3.96
152.17,0.09,-0.08,0.23,-8.98,0.13,-3.96
152.28,-0.03,-0.0,-0.03,-8.95,0.14,-3.96
152.39,-0.17,0.04,-0.41,-8.97,0.12,-3.96
152.51,-0.05,-0.16,-0.01,-8.99,0.13,-3.94
152.62,0.07,-0.0,0.23,-8.97,0.13,-3.95
152.74,-0.19,-0.02,-0.42,-8.99,0.14,-3.96
152.85,0.17,-0.11,0.48,-8.96,0.15,-3.97
152.97,0.07,0.04,0.26,-8.98,0.12,-3.98
153.08,-0.03,0.06,-0.12,-8.97,0.15,-3.97
153.2,-0.0,0.01,-0.01,-8.99,0.12,-3.94
153.31,-0.02,0.06,-0.07,-8.99,0.15,-3.95
153.42,-0.11,0.04,-0.26,-8.98,0.14,-3.97
153.54,0.04,-0.22,0.29,-9.0,0.12,-3.96
153.65,0.09,0.09,0.2,-8.98,0.14,-3.98
153.77,-0.09,0.09,-0.33,-8.98,0.15,-3.98
153.88,-0.08,0.01,-0.13,-8.98,0.13,-3.96
154.0,-0.03,0.01,-0.03,-8.98,0.13,-3.95
154.11,0.01,0.01,0.17,-8.98,0.13,-3.96
154.22,-0.03,0.04,0.08,-8.99,0.14,-3.95
154.34,-0.06,0.01,-0.04,-8.97,0.12,-3.96
154.45,-0.05,0.01,-0.04,-8.99,0.12,-3.95
154.57,-0.02,-0.08,0.05,-8.99,0.15,-3.97
154.68,0.01,0.01,-0.03,-8.99,0.14,-3.94
154.8,0.03,-0.02,0.08,-8.98,0.12,-3.98
154.91,-0.05,-0.0,0.0,-8.98,0.14,-3.96
155.02,-0.02,-0.05,0.03,-8.98,0.11,-3.96
155.14,-0.0,-0.02,0.03,-8.99,0.13,-3.94
155.25,-0.09,0.01,-0.13,-8.98,0.13,-3.97
155.37,0.04,-0.07,0.09,-8.98,0.15,-3.96
155.48,-0.09,0.06,-0.12,-8.98,0.15,-3.97
155.59,-0.02,0.01,-0.03,-9.0,0.14,-3.96
155.71,-0.05,-0.07,-0.04,-8.97,0.13,-3.97
155.82,0.01,-0.04,0.06,-8.98,0.13,-3.97
155.94,-0.03,0.03,-0.01,-8.98,0.14,-3.94
156.05,-0.03,-0.02,-0.03,-8.97,0.13,-3.94
156.17,-0.03,-0.04,-0.04,-8.98,0.12,-3.95
156.28,-0.05,-0.08,-0.04,-8.98,0.13,-3.95
156.4,-0.05,-0.02,-0.06,-8.99,0.14,-3.98
156.51,-0.09,0.03,-0.13,-8.99,0.13,-3.95
156.62,0.01,-0.05,0.03,-8.98,0.13,-3.96
156.74,-0.05,-0.05,-0.1,-8.98,0.14,-3.97
156.85,-0.06,-0.04,-0.1,-8.98,0.12,-3.97
156.97,0.03,-0.08,0.11,-8.99,0.13,-3.97
157.08,-0.08,-0.07,-0.09,-8.98,0.13,-3.95
157.2,-0.05,0.01,-0.09,-8.97,0.15,-3.97
157.31,0.01,0.03,0.06,-8.97,0.12,-3.95
157.42,-0.03,0.01,-0.07,-8.98,0.13,-3.95
157.54,0.03,-0.05,0.06,-8.98,0.12,-3.94
157.65,-0.02,-0.02,0.0,-8.99,0.12,-3.95
157.77,-0.03,-0.02,0.02,-8.99,0.14,-3.96
157.88,-0.08,0.01,-0.09,-8.97,0.14,-3.95
158.0,-0.0,-0.02,0.12,-8.98,0.13,-3.96
158.11,-0.02,-0.0,0.05,-8.98,0.14,-3.97
158.22,-0.08,0.07,-0.1,-8.98,0.14,-3.95
158.34,0.06,0.01,0.16,-8.99,0.14,-3.98
158.45,-0.06,0.04,-0.12,-9.0,0.13,-3.95
158.57,-0.0,-0.04,0.05,-8.98,0.13,-3.95
158.68,-0.0,0.03,-0.01,-8.98,0.13,-3.96
158.8,-0.06,0.01,-0.07,-8.98,0.13,-3.96
158.91,-0.0,-0.04,0.06,-8.98,0.14,-3.99
159.02,-0.02,0.01,-0.07,-8.99,0.13,-3.95
159.14,-0.05,0.03,-0.03,-8.97,0.14,-3.97
159.25,-0.0,0.04,-0.03,-8.97,0.13,-3.94
159.37,-0.05,0.06,-0.06,-8.98,0.14,-3.98
159.48,-0.02,0.04,-0.01,-9.0,0.14,-3.96
159.6,-0.03,-0.11,-0.04,-8.99,0.13,-3.96
159.71,0.01,-0.11,0.11,-8.97,0.13,-3.97
159.82,-0.0,-0.07,0.12,-8.98,0.14,-3.97
159.94,-0.02,-0.05,-0.04,-8.99,0.13,-3.95
160.05,-0.05,-0.02,-0.01,-8.99,0.14,-3.94
160.17,-0.03,-0.0,-0.01,-8.99,0.14,-3.97
160.28,-0.05,-0.05,-0.06,-8.98,0.15,-3.96
160.4,0.03,-0.02,0.06,-8.98,0.14,-3.95
160.51,-0.05,0.03,-0.06,-8.97,0.13,-3.97
160.63,-0.03,-0.02,-0.01,-8.99,0.14,-3.96
160.74,0.03,0.03,0.09,-8.98,0.12,-3.96
160.85,-0.06,-0.07,-0.1,-8.97,0.13,-3.96
160.97,-0.03,0.07,-0.06,-8.97,0.13,-3.96
161.08,-0.0,0.06,0.0,-8.98,0.12,-3.98
161.2,-0.0,0.03,0.02,-8.99,0.12,-3.96
161.31,-0.09,0.03,-0.18,-8.99,0.13,-3.96
161.43,-0.02,0.01,-0.03,-8.97,0.13,-3.95
161.54,-0.0,-0.07,0.0,-8.98,0.12,-3.95
161.65,-0.0,-0.0,0.06,-8.99,0.13,-3.96
161.77,-0.02,0.01,-0.04,-8.98,0.13,-3.97
161.88,-0.02,-0.0,-0.04,-8.96,0.12,-3.96
162.0,0.07,-0.0,0.22,-8.98,0.15,-3.97
162.11,-0.02,0.03,0.05,-8.97,0.13,-3.96
162.23,-0.09,-0.02,-0.13,-8.98,0.13,-3.96
162.34,0.04,-0.11,0.14,-8.98,0.14,-3.99
162.45,-0.03,-0.0,-0.01,-8.97,0.13,-3.96
162.57,-0.05,0.06,-0.04,-8.99,0.14,-3.98
162.68,0.06,-0.05,0.08,-8.99,0.12,-3.96
162.8,-0.0,-0.08,-0.01,-8.98,0.13,-3.97
162.91,-0.0,0.01,0.0,-8.98,0.14,-3.97
163.02,-0.06,0.07,-0.12,-8.96,0.13,-3.97
163.14,-0.02,-0.0,-0.01,-9.01,0.14,-3.96
163.25,0.01,-0.05,0.09,-8.97,0.13,-3.95
163.37,0.04,0.01,0.12,-8.97,0.16,-3.96
163.48,-0.02,-0.04,-0.03,-8.99,0.14,-3.97
163.6,-0.05,0.03,-0.07,-8.98,0.14,-3.97
163.71,0.04,-0.02,0.17,-8.98,0.15,-3.95
163.83,-0.0,-0.02,-0.03,-8.99,0.13,-3.97
163.94,0.01,-0.04,0.14,-8.97,0.14,-3.97
164.05,-0.09,-0.07,-0.13,-8.99,0.14,-3.97
164.17,0.01,-0.08,0.12,-8.99,0.14,-3.96
164.28,-0.0,-0.02,0.02,-8.97,0.13,-3.98
164.4,-0.05,0.06,-0.04,-8.98,0.13,-3.95
164.51,-0.03,0.01,-0.06,-8.97,0.13,-3.96
164.63,-0.05,-0.04,-0.04,-8.97,0.13,-3.95
164.74,0.03,-0.08,0.12,-8.99,0.15,-3.96
164.85,0.01,-0.02,0.0,-8.99,0.12,-3.99
164.97,-0.02,0.03,-0.01,-8.98,0.12,-3.97
165.08,-0.03,0.01,-0.03,-8.98,0.13,-3.97
165.2,-0.0,0.01,0.05,-8.97,0.13,-3.94
165.31,-0.0,-0.05,0.02,-8.99,0.14,-3.94
165.43,-0.03,-0.02,-0.06,-8.98,0.14,-3.96
165.54,-0.02,-0.02,-0.07,-8.99,0.13,-3.94
165.66,-0.05,-0.0,-0.04,-8.97,0.13,-3.94
165.77,-0.03,-0.07,-0.06,-8.98,0.14,-3.95
165.88,0.01,-0.04,0.11,-9.0,0.12,-3.95
166.0,-0.17,-0.07,-0.32,-8.99,0.13,-3.98
166.11,0.01,0.03,0.11,-8.97,0.15,-3.96
166.23,-0.08,-0.0,-0.15,-8.98,0.14,-3.96
166.34,-0.05,-0.04,-0.01,-9.0,0.13,-3.93
166.46,-0.03,0.01,0.03,-8.98,0.13,-3.95
166.57,-0.03,0.01,0.05,-8.98,0.13,-3.95
166.68,-0.06,0.01,-0.12,-8.97,0.14,-3.97
166.8,0.04,0.07,0.09,-9.0,0.14,-3.97
166.91,-0.03,0.04,0.0,-8.97,0.14,-3.96
167.03,-0.09,0.01,-0.13,-8.98,0.13,-3.98
167.14,-0.03,-0.07,0.0,-8.97,0.14,-3.96
171.37,-0.22,-0.08,-0.44,-8.98,0.13,-3.95
171.48,-0.14,0.03,-0.33,-8.99,0.12,-3.95
171.6,0.04,-0.02,0.16,-8.99,0.14,-3.96
171.71,0.03,0.04,0.03,-8.98,0.14,-3.99
171.83,-0.06,-0.05,-0.1,-8.98,0.13,-3.96
171.94,-0.0,-0.16,0.09,-8.99,0.13,-3.95
172.05,-0.03,-0.07,-0.03,-8.98,0.14,-3.95
172.17,-0.03,-0.08,0.02,-8.99,0.13,-3.95
172.28,0.03,-0.02,0.03,-8.98,0.14,-3.96
172.4,-0.03,-0.05,0.02,-8.96,0.13,-3.96
172.51,-0.0,-0.07,0.02,-8.97,0.15,-3.96
172.63,-0.0,-0.05,0.05,-8.99,0.13,-3.96
172.74,-0.08,0.09,-0.18,-8.97,0.12,-3.95
172.86,-0.05,-0.02,-0.1,-8.98,0.13,-3.95
172.97,-0.03,-0.02,-0.03,-8.98,0.15,-3.95
173.08,-0.05,0.03,0.02,-8.99,0.13,-3.96
173.2,0.04,-0.02,0.12,-8.99,0.12,-3.97
173.31,0.01,-0.02,0.06,-8.98,0.13,-3.94
173.43,-0.03,-0.02,-0.07,-9.0,0.13,-3.95
173.54,-0.08,-0.0,-0.1,-8.98,0.14,-3.96
173.66,-0.0,0.01,0.0,-9.0,0.13,-3.96
173.77,-0.11,-0.02,-0.15,-8.97,0.14,-4.01
173.88,-0.0,0.01,0.0,-8.98,0.14,-3.98
174.0,-0.02,0.04,0.03,-8.97,0.15,-3.96
174.11,-0.05,-0.08,0.0,-8.99,0.14,-3.95
174.23,0.04,-0.04,0.09,-8.97,0.14,-3.96
174.34,-0.03,0.03,-0.03,-8.97,0.14,-3.96
174.45,-0.0,-0.04,0.02,-8.98,0.14,-3.97
174.57,-0.02,-0.04,-0.09,-8.99,0.14,-3.93
174.68,-0.02,-0.05,0.03,-8.97,0.14,-3.96
174.8,-0.02,-0.04,-0.03,-8.99,0.13,-3.95
174.91,0.04,0.03,0.08,-8.99,0.12,-3.97
175.03,-0.08,0.01,-0.13,-8.98,0.13,-3.95
175.14,0.03,-0.02,0.14,-8.98,0.12,-3.95
175.26,-0.05,0.03,-0.01,-8.97,0.13,-3.97
175.37,-0.02,-0.04,0.02,-8.97,0.12,-3.96
175.48,0.04,0.01,0.05,-8.98,0.13,-3.97
175.6,-0.0,0.07,0.02,-8.97,0.14,-3.98
175.71,-0.05,-0.1,-0.18,-9.0,0.14,-3.96
175.83,-0.0,-0.04,0.05,-8.97,0.14,-3.95
175.94,0.01,0.04,-0.01,-8.98,0.15,-3.97
176.05,-0.03,-0.07,-0.06,-8.99,0.15,-3.95
176.17,-0.02,-0.02,-0.04,-8.98,0.14,-3.96
176.28,-0.03,-0.02,-0.04,-8.98,0.12,-3.97
176.4,0.04,-0.04,0.2,-8.98,0.14,-3.96
176.51,-0.05,-0.0,0.0,-8.98,0.14,-3.99
176.63,-0.03,-0.0,-0.07,-8.98,0.13,-3.96
176.74,0.01,-0.02,0.02,-8.99,0.14,-3.96
176.86,0.03,-0.0,0.05,-8.98,0.15,-3.98
176.97,-0.0,-0.02,0.0,-8.97,0.14,-3.96
177.08,-0.02,-0.02,0.03,-8.97,0.13,-3.97
177.2,-0.06,-0.02,-0.04,-8.99,0.14,-3.95
177.31,-0.08,-0.02,-0.09,-8.97,0.13,-3.95
177.43,0.04,-0.04,0.05,-8.97,0.14,-3.98
177.54,-0.02,-0.07,-0.03,-8.99,0.14,-3.95
177.66,-0.02,-0.02,0.0,-8.97,0.14,-3.95
177.77,-0.03,-0.05,-0.04,-8.99,0.14,-3.95
177.88,-0.05,0.01,-0.03,-8.99,0.13,-3.96
178.0,-0.03,-0.02,-0.01,-8.98,0.14,-3.96
178.11,-0.03,0.04,-0.03,-8.99,0.14,-3.95
178.23,-0.02,0.01,0.0,-8.98,0.14,-3.97
178.34,-0.0,-0.04,0.09,-8.97,0.13,-3.96
178.46,-0.02,-0.02,-0.01,-8.99,0.15,-3.97
178.57,-0.02,-0.0,-0.03,-8.99,0.13,-3.96
178.69,-0.0,-0.0,-0.03,-8.99,0.13,-3.96
178.8,-0.02,-0.04,-0.03,-9.0,0.14,-3.98
178.91,-0.0,-0.02,0.03,-8.98,0.12,-3.94
179.03,-0.0,-0.1,0.02,-8.97,0.12,-3.96
179.14,-0.03,0.01,-0.01,-8.98,0.14,-3.95
179.26,0.01,-0.0,-0.01,-8.99,0.13,-3.94
179.37,-0.03,-0.0,0.02,-8.99,0.13,-3.97
179.49,-0.05,-0.02,-0.1,-8.99,0.13,-3.96
179.6,0.01,0.01,0.16,-8.98,0.13,-3.97
179.72,-0.0,0.01,0.14,-8.97,0.13,-3.98
179.83,-0.03,-0.02,0.05,-8.98,0.12,-3.96
179.94,0.01,-0.07,0.03,-9.0,0.13,-3.95
180.06,-0.03,-0.05,-0.04,-8.98,0.14,-3.97
180.17,-0.0,-0.0,0.0,-8.97,0.14,-3.96
180.29,0.03,-0.0,0.06,-8.98,0.13,-3.96
180.4,-0.03,-0.05,-0.04,-8.98,0.13,-3.98
180.51,-0.0,-0.04,0.0,-8.97,0.14,-3.96
180.63,-0.03,0.03,0.0,-8.98,0.13,-3.95
180.74,0.01,0.09,0.03,-8.98,0.13,-3.97
180.86,0.01,-0.05,0.14,-8.97,0.14,-3.97
180.97,-0.08,-0.0,-0.21,-8.97,0.14,-3.98
181.09,0.09,0.04,0.23,-8.98,0.13,-3.95
181.2,-0.08,-0.02,-0.1,-8.99,0.14,-3.95
181.31,0.04,-0.02,0.03,-8.98,0.12,-3.96
181.43,-0.02,0.04,0.06,-8.96,0.13,-3.96
181.54,-0.02,-0.07,0.08,-8.98,0.13,-3.96
181.66,0.01,0.04,-0.01,-8.99,0.13,-3.95
181.77,-0.0,-0.07,0.03,-8.98,0.14,-3.95
181.88,-0.02,-0.02,0.08,-8.99,0.13,-3.97
182.0,-0.03,-0.04,-0.01,-8.98,0.14,-3.96
182.11,-0.08,-0.05,-0.03,-8.99,0.13,-3.98
182.23,0.01,0.03,0.08,-8.98,0.13,-3.97
182.34,-0.03,-0.04,0.03,-8.98,0.13,-3.96
182.46,-0.05,-0.14,-0.03,-8.98,0.13,-3.98
182.57,-0.02,-0.02,-0.01,-8.97,0.13,-3.96
182.69,-0.0,0.01,0.06,-8.98,0.15,-3.97
182.8,-0.02,-0.04,-0.01,-9.0,0.14,-3.93
182.91,0.03,-0.0,0.02,-8.98,0.13,-3.96
183.03,-0.0,-0.04,0.02,-9.0,0.14,-3.94
183.14,-0.0,-0.04,0.02,-8.99,0.13,-3.96
183.26,-0.0,-0.0,-0.01,-8.99,0.12,-3.98
183.37,-0.02,-0.02,-0.01,-8.98,0.14,-3.99
183.49,-0.0,-0.04,0.05,-8.97,0.13,-3.95
183.6,-0.09,-0.05,-0.15,-8.99,0.13,-3.95
183.72,0.03,-0.17,0.22,-9.0,0.12,-3.94
183.83,-0.0,0.09,0.02,-8.98,0.14,-3.96
183.94,-0.11,0.04,-0.24,-8.98,0.14,-3.94
184.06,0.12,-0.0,0.26,-8.98,0.12,-3.96
184.17,-0.03,-0.0,-0.12,-8.99,0.13,-3.97
184.29,-0.03,-0.05,-0.13,-8.97,0.15,-3.95
184.4,0.03,-0.04,0.05,-8.96,0.13,-3.95
184.52,-0.03,0.01,0.0,-8.98,0.12,-3.96
184.63,-0.06,0.01,0.02,-8.97,0.14,-3.96
184.74,0.01,-0.02,0.03,-8.97,0.14,-3.97
184.86,-0.03,-0.02,-0.01,-8.98,0.14,-3.94
184.97,-0.02,-0.05,0.08,-8.99,0.14,-3.96
185.09,-0.02,0.06,-0.12,-8.98,0.14,-3.96
185.2,-0.02,0.01,0.02,-8.98,0.14,-3.98
185.32,-0.0,-0.02,-0.03,-8.98,0.13,-3.97
185.43,-0.03,0.03,0.05,-8.98,0.14,-3.97
185.54,-0.05,-0.05,-0.06,-8.98,0.13,-3.98
185.66,0.06,0.06,0.0,-8.97,0.15,-3.96
185.77,-0.03,-0.04,-0.04,-8.98,0.14,-3.95
185.89,-0.03,-0.11,0.08,-8.97,0.14,-3.96
186.0,-0.09,-0.07,-0.15,-8.98,0.14,-3.97
186.12,0.09,0.03,0.31,-8.98,0.13,-3.96
186.23,0.12,-0.04,0.32,-8.98,0.14,-3.98
186.34,-0.12,-0.11,-0.21,-8.98,0.14,-3.98
186.46,0.01,-0.08,0.08,-8.98,0.14,-3.95
186.57,0.01,0.06,0.06,-8.99,0.13,-3.98
186.69,-0.06,0.01,-0.07,-8.99,0.14,-3.97
186.8,-0.03,-0.05,-0.07,-8.98,0.13,-3.99
186.91,-0.02,-0.05,-0.06,-8.99,0.13,-3.94
187.03,-0.03,-0.0,-0.09,-8.98,0.14,-3.98
187.14,0.01,0.09,0.06,-8.98,0.14,-3.95
187.26,-0.08,-0.05,-0.12,-8.99,0.12,-3.95
187.37,-0.03,-0.07,-0.01,-8.98,0.14,-3.97
187.49,0.01,0.03,0.0,-8.97,0.14,-3.95
187.6,-0.52,-0.37,-0.96,-9.03,0.17,-3.98
187.72,0.61,-0.04,1.64,-8.95,0.14,-3.97
187.83,-0.26,0.24,-0.65,-8.98,0.14,-3.96
187.94,-0.22,0.1,-0.41,-9.0,0.12,-3.96
188.06,0.03,-0.04,0.14,-8.98,0.13,-3.95
188.17,-0.11,-0.04,-0.32,-8.98,0.14,-3.97
188.29,-0.02,-0.04,-0.06,-8.99,0.12,-3.96
188.4,0.06,-0.02,0.22,-8.98,0.14,-3.95
188.52,-0.08,0.01,-0.12,-9.0,0.13,-3.96
188.63,-0.05,-0.04,-0.04,-8.99,0.13,-3.96
188.74,0.01,-0.08,-0.03,-8.99,0.14,-3.96
188.86,-0.02,0.03,0.02,-8.98,0.13,-3.94
188.97,-0.02,0.01,0.0,-8.98,0.13,-3.94
189.09,0.01,-0.04,0.03,-8.99,0.13,-3.94
189.2,-0.02,-0.05,0.02,-8.98,0.13,-3.97
189.32,-0.03,-0.0,-0.01,-9.0,0.14,-3.96
189.43,-0.0,-0.0,0.0,-8.99,0.15,-3.96
189.54,0.01,0.03,0.03,-8.97,0.13,-3.96
189.66,-0.06,-0.0,-0.07,-8.98,0.14,-3.94
189.77,-0.05,-0.02,-0.06,-8.99,0.14,-3.96
189.89,-0.03,-0.04,0.02,-8.98,0.13,-3.95
190.0,-0.0,-0.0,0.08,-8.99,0.13,-3.97
190.12,-0.0,0.01,0.03,-8.98,0.15,-3.96
190.23,-0.0,-0.0,0.05,-8.98,0.14,-3.97
190.35,0.01,0.03,0.06,-8.98,0.13,-3.95
190.46,-0.06,0.06,-0.15,-8.99,0.13,-3.96
190.57,-0.0,-0.07,0.09,-8.98,0.13,-3.96
190.69,-0.02,-0.13,0.09,-8.99,0.14,-3.99
190.8,0.03,-0.0,0.12,-8.98,0.12,-3.97
190.92,-0.09,-0.02,-0.15,-8.98,0.14,-3.98
191.03,-0.0,0.04,-0.04,-8.96,0.13,-3.95
191.14,0.01,-0.08,0.03,-8.98,0.14,-3.97
191.26,-0.02,-0.02,-0.06,-9.0,0.12,-3.97
191.37,-0.03,-0.02,-0.04,-8.98,0.15,-3.97
191.49,0.01,-0.02,0.0,-8.97,0.14,-3.98
191.6,-0.05,-0.02,-0.06,-8.97,0.13,-3.97
191.72,0.06,-0.02,0.11,-9.0,0.14,-3.95
191.83,0.01,0.07,-0.01,-8.99,0.13,-3.96
191.94,-0.25,0.18,-0.67,-8.97,0.15,-3.97
192.06,-0.17,-0.04,-0.3,-8.97,0.13,-3.97
192.17,0.04,-0.14,0.16,-8.99,0.13,-3.95
192.29,-0.02,0.04,-0.06,-8.97,0.15,-3.97
192.4,-0.14,-0.05,-0.24,-8.99,0.12,-3.94
192.52,-0.02,-0.07,0.11,-8.98,0.14,-3.96
192.63,-0.0,-0.05,0.12,-8.99,0.13,-3.95
192.75,0.01,-0.0,0.03,-8.98,0.14,-3.96
192.86,0.03,-0.0,0.16,-8.99,0.13,-3.93
192.97,-0.08,-0.0,-0.15,-8.99,0.13,-3.94
193.09,-0.0,-0.04,-0.09,-8.98,0.14,-3.95
193.2,-0.02,-0.0,0.05,-8.99,0.14,-3.96
193.32,0.06,0.1,0.22,-8.98,0.15,-3.98
193.43,-0.08,0.09,-0.18,-8.99,0.14,-3.97
193.55,-0.03,0.03,-0.07,-8.99,0.13,-3.94
193.66,0.1,-0.14,0.38,-8.98,0.13,-3.97
193.77,-0.11,-0.05,-0.29,-8.98,0.12,-3.97
193.89,0.06,0.03,0.17,-8.98,0.13,-3.97
194.0,-0.08,0.16,-0.24,-9.0,0.14,-3.95
194.12,-0.02,0.12,-0.03,-8.98,0.13,-3.98
194.23,-0.08,-0.04,-0.21,-8.97,0.13,-3.96
194.35,0.17,-0.08,0.46,-8.98,0.12,-3.96
194.46,0.12,0.03,0.34,-8.97,0.15,-3.97
194.57,-0.28,-0.04,-0.7,-8.99,0.13,-3.98
194.69,0.06,-0.02,0.17,-8.99,0.14,-3.95
194.8,-0.0,0.06,-0.07,-8.98,0.15,-3.97
194.92,-0.09,-0.05,-0.15,-8.98,0.13,-3.95
199.26,0.06,-0.04,0.03,-8.98,0.13,-3.99
199.37,-0.12,-0.0,-0.18,-8.97,0.14,-3.95
199.49,0.09,0.1,0.12,-8.98,0.13,-3.96
199.6,-0.02,-0.07,-0.01,-8.97,0.15,-3.96
199.72,-0.06,-0.08,-0.04,-8.99,0.13,-3.95
199.83,0.01,0.09,0.09,-9.0,0.13,-3.95
199.95,-0.0,-0.04,0.03,-8.98,0.14,-3.96
200.06,-0.08,-0.13,-0.04,-9.01,0.12,-3.96
200.17,-0.03,-0.02,0.02,-8.97,0.14,-3.97
200.29,0.03,0.04,0.12,-8.99,0.12,-3.95
200.4,-0.02,0.03,0.05,-8.99,0.15,-3.96
200.52,-0.03,-0.05,-0.01,-8.97,0.13,-3.98
200.63,0.09,-0.0,0.28,-8.97,0.14,-3.96
200.75,-0.09,0.07,-0.18,-8.99,0.12,-3.97
200.86,-0.05,0.03,-0.09,-8.99,0.13,-3.97
200.97,0.04,-0.07,0.26,-8.98,0.13,-3.96
201.09,0.12,-0.07,0.32,-8.99,0.12,-3.96
201.2,-0.0,-0.02,0.05,-8.99,0.14,-3.96
201.32,-0.03,-0.07,-0.03,-8.98,0.14,-3.97
201.43,-0.06,0.06,-0.06,-8.98,0.12,-3.95
201.55,-0.19,-0.05,-0.36,-8.98,0.13,-3.94
201.66,0.1,-0.05,0.25,-8.97,0.14,-3.95
201.77,-0.02,0.1,-0.07,-8.98,0.13,-3.97
201.89,0.06,-0.16,0.29,-9.0,0.12,-3.98
202.0,0.06,-0.08,0.14,-8.98,0.11,-3.94
202.12,-0.08,-0.04,-0.15,-8.99,0.13,-3.97
202.23,-0.02,-0.02,-0.03,-8.99,0.13,-3.96
202.35,-0.06,0.01,-0.17,-8.98,0.13,-3.95
202.46,0.01,-0.14,0.03,-8.99,0.11,-3.96
202.57,-0.0,0.07,0.02,-8.98,0.14,-3.98
202.69,-0.03,0.03,-0.1,-8.99,0.14,-3.97
202.8,0.06,0.09,0.06,-8.97,0.13,-3.97
202.92,-0.11,0.09,-0.23,-8.96,0.14,-3.97
203.03,-0.02,-0.07,-0.01,-8.99,0.12,-3.96
203.15,0.03,0.01,0.2,-8.97,0.13,-3.98
203.26,-0.11,-0.05,-0.18,-8.97,0.15,-3.95
203.37,0.04,-0.02,0.17,-8.98,0.12,-3.97
203.49,-0.0,0.01,-0.01,-8.99,0.11,-3.98
203.6,-0.03,-0.04,-0.04,-9.0,0.13,-3.95
203.72,0.01,-0.04,0.06,-8.97,0.12,-3.96
203.83,-0.05,-0.08,-0.07,-8.98,0.13,-3.96
203.95,0.03,-0.02,0.11,-8.98,0.13,-3.97
204.06,-0.05,-0.05,-0.1,-8.98,0.13,-3.97
204.17,-0.0,0.01,0.02,-8.99,0.14,-3.95
204.29,-0.05,-0.02,-0.06,-8.96,0.13,-3.98
204.4,-0.03,-0.07,-0.09,-8.99,0.13,-3.95
204.52,-0.0,-0.02,0.02,-8.97,0.12,-3.95
204.63,-0.0,-0.0,-0.09,-8.98,0.13,-3.98
204.75,-0.0,0.03,0.05,-8.98,0.14,-3.99
204.86,-0.05,-0.0,-0.07,-8.98,0.13,-3.95
204.98,-0.08,0.01,-0.17,-8.98,0.12,-3.97
205.09,0.01,0.06,-0.04,-8.99,0.14,-3.97
205.2,0.04,-0.0,0.08,-8.97,0.12,-3.95
205.32,0.01,-0.08,0.06,-8.98,0.14,-3.98
205.43,-0.19,0.01,-0.39,-8.98,0.12,-3.95
205.55,0.09,0.04,0.12,-8.99,0.13,-3.95
205.66,-0.03,-0.0,-0.1,-8.97,0.13,-3.96
205.77,-0.06,-0.04,-0.07,-8.98,0.13,-3.96
205.89,-0.02,-0.02,0.03,-8.98,0.13,-3.96
206.0,-0.0,0.03,0.0,-8.97,0.13,-3.97
206.12,0.03,0.03,-0.01,-8.97,0.14,-3.97
206.23,-0.02,0.04,0.03,-8.97,0.11,-3.95
206.35,-0.02,0.01,0.03,-8.98,0.13,-3.97
206.46,-0.08,-0.0,-0.12,-8.98,0.13,-3.96
206.57,0.07,-0.0,0.16,-8.97,0.14,-3.97
206.69,-0.05,-0.02,-0.1,-8.98,0.13,-3.97
206.8,0.06,-0.0,0.2,-8.97,0.13,-3.95
206.92,-0.08,-0.04,0.0,-8.99,0.14,-3.96
207.03,-0.14,-0.04,-0.32,-8.99,0.14,-3.95
207.15,-0.06,0.03,-0.09,-8.98,0.13,-3.97
207.26,0.04,0.03,0.2,-8.98,0.13,-3.96
207.38,-0.03,-0.0,0.02,-8.97,0.14,-3.99
207.49,0.04,-0.04,0.19,-8.98,0.13,-3.96
207.6,0.01,0.06,0.02,-8.99,0.12,-3.96
207.72,-0.03,0.04,-0.01,-8.99,0.14,-3.96
207.83,-0.05,-0.13,0.0,-9.0,0.13,-3.97
207.95,-0.09,-0.02,-0.1,-8.99,0.14,-3.95
208.06,-0.0,-0.0,0.14,-8.99,0.13,-3.92
208.18,-0.11,-0.07,-0.2,-9.0,0.14,-3.97
208.29,-0.06,-0.07,-0.01,-8.98,0.12,-3.94
208.4,0.06,0.01,0.2,-8.97,0.13,-3.96
208.52,-0.15,-0.0,-0.33,-8.98,0.14,-3.95
208.63,0.1,-0.05,0.23,-8.98,0.12,-3.97
208.75,0.03,-0.0,0.09,-8.97,0.14,-3.94
208.86,0.01,-0.07,0.11,-8.97,0.12,-3.96
208.97,0.01,0.03,0.08,-8.98,0.14,-3.98
209.09,-0.05,0.04,-0.15,-8.97,0.13,-3.97
209.2,-0.02,0.01,-0.01,-9.0,0.13,-3.98
209.32,-0.02,0.01,-0.03,-8.99,0.12,-3.97
209.43,-0.02,-0.04,0.0,-8.99,0.12,-3.96
209.55,-0.05,-0.0,-0.09,-8.98,0.14,-3.95
209.66,-0.06,-0.0,-0.09,-8.98,0.12,-3.95
209.77,0.03,-0.04,0.11,-8.98,0.13,-3.97
209.89,-0.06,-0.04,-0.07,-8.98,0.13,-3.98
210.0,0.01,-0.0,0.08,-8.99,0.14,-3.98
210.12,-0.03,-0.04,0.0,-8.99,0.14,-3.97
210.23,0.03,-0.05,0.05,-8.98,0.14,-3.95
210.35,-0.05,0.03,-0.01,-8.98,0.13,-3.95
210.46,-0.05,0.03,-0.07,-8.97,0.13,-3.96
210.58,-0.05,-0.0,0.02,-8.98,0.14,-3.97
210.69,-0.0,0.01,-0.03,-8.99,0.13,-3.95
210.8,-0.09,-0.07,-0.09,-8.99,0.13,-3.96
210.92,-0.08,0.01,-0.13,-8.99,0.13,-3.96
211.03,-0.02,0.01,0.0,-8.97,0.13,-3.96
211.15,-0.03,-0.04,-0.03,-8.99,0.15,-3.93
211.26,0.01,0.01,0.06,-8.98,0.13,-3.96
211.38,-0.11,0.03,-0.1,-8.99,0.13,-3.96
211.49,-0.02,0.03,0.03,-8.99,0.13,-3.93
211.6,-0.02,0.07,-0.03,-8.98,0.13,-3.96
211.72,-0.09,-0.04,-0.1,-8.98,0.15,-3.96
211.83,0.01,-0.1,0.05,-8.98,0.12,-3.96
211.95,0.03,0.01,0.08,-8.98,0.13,-3.95
212.06,-0.05,0.03,-0.07,-8.99,0.13,-3.97
212.17,0.01,-0.02,0.05,-8.99,0.13,-3.94
212.29,0.01,-0.0,-0.01,-8.97,0.12,-3.98
212.4,-0.03,0.07,-0.03,-8.98,0.12,-3.99
212.52,-0.09,-0.13,-0.13,-8.98,0.12,-3.96
212.63,-0.02,-0.1,0.03,-9.0,0.14,-3.97
212.75,0.07,-0.04,0.22,-8.97,0.12,-3.95
212.86,-0.08,-0.0,-0.17,-8.98,0.14,-3.98
212.98,-0.03,-0.1,-0.03,-9.0,0.12,-3.96
213.09,-0.03,0.07,-0.09,-8.98,0.12,-3.96
213.2,-0.02,0.01,-0.09,-8.99,0.12,-3.97
213.32,-0.08,-0.07,-0.12,-8.98,0.13,-3.96
213.43,-0.0,0.01,0.03,-8.98,0.15,-3.96
213.55,-0.02,-0.05,-0.03,-8.99,0.13,-3.94
213.66,-0.0,0.01,-0.07,-8.99,0.13,-3.96
213.78,-0.02,-0.05,0.02,-8.98,0.15,-3.96
213.89,-0.0,-0.07,-0.03,-8.99,0.14,-3.96
214.0,-0.0,0.03,-0.04,-8.98,0.13,-3.98
214.12,-0.14,-0.02,-0.24,-8.99,0.13,-3.99
214.23,0.04,-0.1,0.17,-8.98,0.13,-3.96
214.35,-0.0,0.01,-0.04,-8.97,0.14,-3.96
214.46,-0.03,-0.08,-0.06,-8.99,0.13,-3.94
214.58,-0.02,-0.02,-0.01,-8.99,0.12,-3.94
214.69,0.06,0.04,0.19,-8.98,0.12,-3.96
214.8,-0.09,0.04,-0.15,-8.98,0.12,-3.98
214.92,0.03,0.01,0.03,-8.97,0.13,-3.97
215.03,0.07,-0.08,0.2,-8.97,0.13,-3.94
215.15,-0.0,-0.11,0.06,-8.98,0.12,-3.96
215.26,-0.0,0.01,0.02,-8.98,0.13,-3.95
215.38,0.03,0.03,0.11,-8.98,0.14,-3.95
215.49,-0.11,0.06,-0.27,-8.98,0.14,-3.96
215.6,0.03,-0.0,0.16,-8.98,0.14,-3.94
215.72,-0.05,-0.02,-0.03,-8.97,0.14,-3.95
215.83,-0.02,-0.0,-0.03,-8.99,0.13,-3.97
215.95,0.07,0.27,0.02,-8.97,0.15,-3.97
216.06,-0.05,-0.04,-0.15,-9.0,0.13,-3.94
216.18,0.12,-0.02,0.29,-8.98,0.14,-3.97
216.29,-0.06,-0.04,-0.1,-9.0,0.14,-3.97
216.4,0.01,-0.0,0.11,-8.98,0.13,-3.97
216.52,0.09,0.07,0.17,-8.98,0.14,-3.98
216.63,-0.67,0.71,-2.04,-8.97,0.15,-3.98
216.75,0.23,-0.08,0.77,-8.98,0.15,-3.98
216.86,-0.08,-0.2,-0.1,-9.0,0.12,-3.95
216.98,-0.11,0.01,-0.33,-8.96,0.13,-3.97
217.09,-0.28,0.1,-0.68,-8.97,0.13,-3.96
217.2,-0.05,-0.04,-0.01,-8.99,0.13,-3.95
217.32,0.01,0.06,0.06,-8.97,0.13,-3.96
217.43,0.09,-0.04,0.31,-8.98,0.11,-3.98
217.55,-0.0,-0.02,0.09,-8.99,0.13,-3.96
217.66,0.06,-0.02,0.22,-8.99,0.12,-3.94
217.78,-0.03,-0.0,-0.07,-8.98,0.13,-3.97
217.89,-0.02,0.1,-0.2,-8.98,0.13,-3.96
218.0,-0.19,0.12,-0.49,-8.98,0.13,-3.94
218.12,0.04,0.04,0.19,-8.99,0.13,-3.95
218.23,-0.0,-0.04,0.09,-8.99,0.13,-3.95
218.35,-0.05,0.01,-0.04,-8.98,0.12,-3.95
218.46,-0.03,0.03,-0.1,-8.98,0.13,-3.94
218.58,-0.03,-0.05,-0.03,-8.98,0.13,-3.95
218.69,0.07,0.1,0.26,-8.98,0.15,-3.98
218.8,-0.02,0.09,0.08,-8.97,0.13,-3.97
218.92,-0.02,-0.16,0.11,-8.99,0.13,-3.96
219.03,0.15,-0.08,0.32,-8.97,0.12,-3.97
219.15,-0.22,0.19,-0.65,-8.96,0.13,-3.96
219.26,-0.05,0.01,-0.03,-9.0,0.12,-3.94
219.38,0.15,-0.1,0.49,-8.96,0.13,-3.98
219.49,-0.17,0.07,-0.41,-8.97,0.13,-3.96
219.6,0.3,0.1,0.66,-8.98,0.13,-3.97
219.72,-0.12,-0.11,-0.21,-8.98,0.14,-3.98
219.83,-0.23,-0.11,-0.55,-8.99,0.11,-3.98
219.95,0.01,0.07,0.06,-8.99,0.12,-3.96
220.06,0.27,0.12,0.66,-8.98,0.13,-3.95
220.18,-0.22,0.07,-0.58,-8.99,0.14,-3.96
220.29,-0.0,-0.0,0.02,-8.98,0.12,-3.96
220.4,0.06,0.01,0.12,-8.99,0.13,-3.96
220.52,-0.0,-0.02,0.08,-8.99,0.14,-3.96
220.63,-0.08,0.01,-0.17,-9.0,0.15,-3.98
220.75,-0.05,-0.04,-0.18,-8.97,0.13,-3.96
224.75,-0.0,-0.0,0.08,-8.99,0.13,-3.96
224.86,-0.14,0.01,-0.23,-8.98,0.12,-3.96
224.97,0.03,0.16,0.05,-8.98,0.13,-3.94
225.09,0.01,0.15,-0.01,-8.98,0.13,-3.98
225.2,0.03,-0.04,0.12,-8.99,0.13,-3.98
225.32,0.14,-0.04,0.4,-8.99,0.13,-3.94
225.43,0.04,0.24,0.0,-8.97,0.14,-3.97
225.54,-0.06,0.16,-0.07,-8.96,0.12,-3.96
225.66,-0.0,-0.07,0.0,-8.99,0.13,-3.94
225.77,-0.03,-0.14,0.0,-8.98,0.12,-3.96
225.89,0.01,-0.0,0.12,-8.98,0.11,-3.94
226.0,0.04,0.25,0.11,-8.97,0.15,-3.97
226.12,-0.03,-0.17,0.05,-8.99,0.1,-3.96
226.23,-0.08,-0.11,-0.09,-8.99,0.12,-3.94
226.34,-0.08,0.19,-0.12,-8.97,0.16,-3.96
226.46,-0.02,0.07,0.03,-8.96,0.14,-3.97
226.57,0.01,-0.19,0.02,-8.98,0.13,-3.95
226.69,-0.0,0.09,-0.03,-8.95,0.14,-3.95
226.8,0.39,0.06,0.84,-8.97,0.12,-3.95
226.91,-0.43,-0.05,-1.07,-9.01,0.11,-3.95
227.03,-0.06,0.09,-0.01,-8.98,0.13,-3.95
227.14,0.1,-0.11,0.32,-8.98,0.14,-3.96
227.26,-0.03,-0.13,-0.06,-9.0,0.13,-3.95
227.37,0.04,0.09,0.05,-8.97,0.14,-3.95
227.49,0.15,0.04,0.28,-8.98,0.11,-3.95
227.6,-0.26,-0.02,-0.65,-8.99,0.11,-3.95
227.72,0.18,0.06,0.35,-8.97,0.14,-3.98
227.83,-0.0,-0.1,0.16,-8.98,0.11,-3.95
227.94,0.01,-0.11,0.08,-8.99,0.12,-3.97
228.06,-0.03,0.03,0.02,-8.97,0.13,-3.94
228.17,-0.11,0.06,-0.21,-8.98,0.13,-3.95
228.29,-0.02,-0.0,0.03,-8.98,0.14,-3.97
228.4,0.06,-0.02,0.16,-8.99,0.14,-3.97
228.51,-0.05,0.03,-0.01,-8.96,0.12,-3.96
228.63,-0.0,0.06,0.05,-8.98,0.13,-3.97
228.74,-0.0,-0.02,0.02,-8.99,0.12,-3.93
228.86,-0.02,-0.0,0.0,-8.98,0.14,-3.95
228.97,-0.05,-0.02,-0.07,-8.99,0.14,-3.94
229.09,-0.0,0.06,0.06,-8.98,0.13,-3.94
229.2,-0.11,-0.04,-0.27,-8.98,0.14,-3.97
229.32,0.1,-0.11,0.35,-8.97,0.12,-3.96
229.43,0.17,0.01,0.37,-8.97,0.13,-3.95
229.54,-0.25,0.15,-0.64,-8.98,0.13,-3.96
229.66,0.01,-0.02,0.06,-8.98,0.14,-3.97
229.77,0.03,-0.02,0.09,-8.98,0.13,-3.96
229.88,0.01,0.15,0.05,-8.98,0.14,-3.96
230.0,-0.14,0.06,-0.27,-8.98,0.12,-3.94
230.11,-0.05,0.07,-0.1,-8.98,0.13,-3.96
230.23,-0.03,0.09,0.0,-8.98,0.13,-3.95
230.34,0.03,-0.05,0.11,-8.99,0.11,-3.95
230.46,-0.02,0.12,-0.06,-8.98,0.12,-3.97
230.57,0.06,0.25,0.08,-8.98,0.13,-3.95
230.69,0.01,0.04,0.11,-8.98,0.13,-3.96
230.8,-0.12,-0.04,-0.18,-8.99,0.12,-3.95
230.91,0.06,-0.08,0.25,-8.98,0.15,-3.95
231.03,-0.06,0.03,-0.12,-8.96,0.13,-3.96
231.14,0.01,0.07,-0.04,-8.98,0.13,-3.97
231.26,0.01,-0.07,0.09,-8.99,0.13,-3.94
231.37,-0.09,-0.07,-0.17,-8.98,0.13,-3.94
231.49,0.03,-0.0,0.06,-8.98,0.15,-3.95
231.6,0.07,-0.0,0.26,-8.97,0.14,-3.96
231.71,-0.03,0.03,0.06,-8.97,0.13,-3.95
231.83,-0.0,-0.05,0.05,-8.99,0.12,-3.96
231.94,-0.03,0.04,-0.06,-8.98,0.14,-3.94
232.05,-0.11,0.03,-0.33,-8.98,0.12,-3.95
232.17,0.09,-0.08,0.25,-9.0,0.13,-3.95
232.29,-0.05,0.01,-0.13,-8.98,0.12,-3.95
232.4,-0.02,0.01,0.0,-8.99,0.12,-3.96
232.51,-0.06,-0.04,-0.12,-8.99,0.14,-3.97
232.63,-0.02,-0.13,0.09,-8.98,0.12,-3.97
232.74,-0.35,-0.2,-0.76,-8.99,0.14,-3.97
232.86,0.03,0.07,0.11,-8.98,0.13,-3.95
232.97,0.15,-0.08,0.45,-9.0,0.12,-3.95
233.08,-0.17,0.01,-0.32,-8.98,0.13,-3.97
233.2,0.29,0.03,0.77,-8.98,0.14,-3.96
233.31,0.29,-0.16,0.89,-8.98,0.12,-3.96
233.43,-0.32,0.24,-0.93,-8.98,0.13,-3.95
233.54,0.04,0.19,0.14,-8.97,0.13,-3.97
233.66,0.24,-0.08,0.75,-8.97,0.13,-3.96
233.77,-0.03,-0.07,0.06,-9.01,0.13,-3.96
233.88,0.04,0.07,0.08,-8.97,0.14,-3.95
234.0,0.04,-0.1,0.14,-8.97,0.14,-3.98
234.11,-0.12,-0.02,-0.27,-8.97,0.13,-3.95
234.23,0.01,0.04,-0.01,-8.98,0.13,-3.97
234.34,0.03,0.03,0.09,-8.99,0.14,-3.96
234.46,0.09,-0.04,0.23,-8.99,0.11,-3.95
234.57,-0.2,-0.0,-0.32,-8.98,0.13,-3.96
234.68,-0.05,0.01,-0.12,-8.98,0.12,-3.96
234.8,-0.0,-0.08,0.03,-8.99,0.12,-3.94
234.91,0.07,-0.04,0.25,-8.97,0.13,-3.97
235.03,-0.06,-0.16,-0.04,-9.01,0.12,-3.94
235.14,-0.19,-0.25,-0.39,-9.01,0.11,-3.93
235.25,-0.08,0.15,-0.23,-8.99,0.13,-3.97
235.37,-0.03,-0.0,-0.12,-8.99,0.13,-3.96
235.48,-0.28,-0.05,-0.62,-8.97,0.14,-3.97
235.6,0.32,-0.13,0.83,-8.97,0.13,-3.95
235.71,-0.09,0.07,-0.32,-8.99,0.13,-3.97
235.83,0.21,0.39,0.34,-8.98,0.13,-3.96
235.94,0.06,0.09,0.06,-9.0,0.13,-4.0
236.05,0.2,-0.22,0.58,-8.99,0.13,-3.97
236.17,0.09,0.04,0.25,-8.97,0.15,-3.97
236.28,-0.11,0.15,-0.33,-8.99,0.14,-3.95
236.4,-0.08,-0.02,-0.32,-8.99,0.14,-3.96
236.51,-0.02,0.04,0.03,-8.96,0.14,-3.97
236.63,0.07,-0.14,0.29,-8.97,0.1,-3.94
236.74,0.17,-0.14,0.6,-8.98,0.12,-3.97
236.85,-0.0,0.01,-0.04,-8.97,0.13,-3.95
236.97,-0.03,-0.0,-0.12,-9.0,0.13,-3.99
237.08,-0.0,0.06,0.09,-8.98,0.14,-3.94
237.2,-0.06,-0.02,-0.18,-8.98,0.13,-3.95
237.31,-0.11,-0.02,-0.15,-8.99,0.13,-3.96
237.43,0.03,-0.13,0.12,-8.98,0.13,-3.97
237.54,-0.05,-0.07,-0.12,-8.98,0.12,-3.97
237.66,0.09,0.04,0.19,-8.98,0.13,-3.97
237.77,0.01,0.09,0.03,-8.97,0.13,-3.96
237.88,-0.0,-0.02,0.06,-8.99,0.14,-3.96
238.0,0.04,-0.05,0.14,-8.98,0.12,-3.98
238.11,0.01,0.01,0.12,-8.98,0.13,-3.97
238.23,-0.08,-0.04,-0.07,-8.99,0.13,-3.96
238.34,-0.14,-0.13,-0.3,-8.99,0.14,-3.97
238.45,0.1,0.03,0.26,-8.99,0.11,-3.97
238.57,-0.03,0.06,-0.13,-8.99,0.14,-3.96
238.68,-0.0,-0.02,0.0,-8.99,0.13,-3.96
238.8,-0.03,0.07,-0.01,-8.98,0.13,-3.96
238.91,0.01,-0.0,0.08,-8.99,0.12,-3.98
239.03,-0.0,-0.11,0.08,-8.98,0.14,-3.95
239.14,0.03,-0.08,0.12,-8.98,0.12,-3.95
239.25,-0.11,-0.07,-0.18,-8.99,0.12,-3.97
239.37,0.04,0.06,0.14,-8.98,0.12,-3.94
239.48,-0.12,-0.16,-0.1,-8.98,0.12,-3.98
239.6,-0.0,-0.08,0.06,-8.99,0.14,-3.96
239.71,-0.09,-0.04,-0.18,-8.99,0.13,-3.98
239.83,-0.14,-0.2,-0.21,-9.0,0.12,-3.94
239.94,-0.09,-0.08,-0.3,-9.0,0.13,-3.95
240.05,-0.23,0.03,-0.5,-8.99,0.13,-3.95
240.17,0.07,0.38,0.08,-8.95,0.13,-3.96
240.28,0.04,-0.08,0.09,-9.0,0.13,-3.97
240.4,0.06,-0.17,0.28,-8.98,0.14,-3.94
240.51,-0.03,0.12,-0.12,-8.97,0.11,-3.95
240.63,-0.19,0.01,-0.46,-8.99,0.13,-3.98
240.74,0.03,-0.14,0.03,-8.99,0.15,-3.96
240.85,0.03,-0.13,0.12,-8.98,0.13,-3.98
240.97,0.01,-0.0,0.09,-8.97,0.13,-3.96
241.08,-0.05,-0.0,-0.07,-8.98,0.12,-3.95
241.2,0.07,-0.04,0.22,-8.99,0.13,-3.97
241.31,0.01,-0.05,0.05,-8.99,0.15,-3.97
241.43,0.04,-0.17,0.12,-8.98,0.13,-3.96
241.54,-0.08,0.03,-0.13,-8.98,0.13,-3.96
241.65,-0.02,-0.0,0.03,-8.98,0.13,-3.97
241.77,-0.0,0.07,-0.01,-8.98,0.13,-3.97
241.88,-0.02,0.04,-0.01,-8.98,0.12,-3.95
242.0,-0.08,-0.0,-0.12,-8.98,0.14,-3.98
242.11,-0.02,-0.02,0.0,-8.98,0.12,-3.96
242.23,-0.06,-0.04,-0.09,-8.99,0.14,-3.96
242.34,0.01,-0.08,0.16,-8.97,0.13,-3.99
242.45,-0.02,-0.02,0.03,-9.0,0.13,-3.97
242.57,-0.06,-0.05,-0.03,-8.99,0.13,-3.97
242.68,-0.02,-0.1,0.05,-8.98,0.13,-3.97
242.8,-0.02,-0.02,-0.01,-8.99,0.14,-3.96
242.91,-0.03,-0.04,-0.09,-8.98,0.13,-3.97
243.03,-0.03,0.01,-0.01,-9.0,0.12,-3.97
243.14,0.01,0.03,0.05,-8.99,0.13,-3.98
243.26,-0.0,-0.02,-0.03,-8.99,0.13,-3.97
243.37,0.04,-0.02,0.17,-8.97,0.13,-3.95
243.48,-0.03,-0.0,-0.03,-8.97,0.14,-3.96
243.6,-0.08,-0.1,-0.12,-9.0,0.13,-3.96
243.71,0.15,-0.1,0.37,-8.97,0.14,-3.96
243.83,-0.15,0.1,-0.38,-8.99,0.13,-3.97
243.94,0.07,0.01,0.16,-8.98,0.13,-3.96
244.05,0.04,0.01,0.12,-8.98,0.13,-3.97
244.17,-0.02,-0.04,-0.07,-8.98,0.13,-4.0
244.28,-0.06,0.03,-0.09,-8.97,0.14,-3.96
244.4,-0.03,0.16,-0.12,-8.96,0.14,-3.98
244.51,-0.0,-0.08,-0.01,-9.0,0.12,-3.97
244.63,0.03,-0.08,0.22,-8.99,0.13,-3.96
244.74,-0.15,-0.04,-0.33,-8.97,0.14,-3.96
244.86,0.09,-0.11,0.32,-8.99,0.11,-3.94
244.97,-0.08,0.13,-0.18,-8.99,0.11,-3.95
245.08,-0.02,0.01,-0.07,-8.97,0.14,-3.98
245.2,0.07,-0.17,0.08,-8.99,0.13,-3.95
245.31,0.09,0.01,0.45,-8.98,0.13,-3.97
245.43,-0.23,-0.2,-0.38,-9.01,0.12,-3.94
245.54,-0.05,-0.02,-0.13,-8.98,0.14,-3.94
245.66,0.01,0.22,-0.09,-8.98,0.11,-3.95
245.77,-0.05,0.01,-0.1,-9.0,0.14,-3.95
245.88,0.12,-0.02,0.52,-8.97,0.13,-3.97
246.0,-0.25,-0.04,-0.64,-9.0,0.13,-3.96
246.11,-0.06,-0.02,-0.1,-8.99,0.12,-3.95
246.23,0.03,-0.23,0.25,-8.97,0.13,-3.97
246.34,0.04,0.15,0.0,-8.97,0.13,-3.96
246.46,0.09,0.07,0.22,-8.99,0.13,-3.97
246.57,-0.23,-0.29,-0.36,-8.98,0.14,-3.95
246.68,-0.0,0.04,0.0,-8.99,0.12,-3.95
246.8,-0.12,0.12,-0.39,-8.98,0.14,-3.96
246.91,0.12,-0.16,0.45,-8.98,0.15,-3.96
247.03,-0.05,-0.11,-0.15,-8.97,0.13,-3.98
247.14,0.06,-0.07,0.17,-8.97,0.12,-3.95
247.26,-0.08,0.12,-0.2,-8.98,0.12,-3.97
247.37,-0.11,0.06,-0.18,-8.99,0.14,-3.96
247.48,-0.08,-0.13,-0.15,-8.99,0.13,-3.95
247.6,0.03,-0.0,0.0,-8.98,0.13,-3.96
247.71,-0.02,-0.23,0.09,-9.0,0.14,-3.96
247.83,-0.12,-0.02,-0.27,-9.0,0.13,-3.95
247.94,-0.02,0.01,-0.15,-8.98,0.13,-3.95
248.05,-0.14,0.07,-0.24,-8.97,0.13,-3.96
248.17,-0.0,-0.04,0.09,-8.98,0.14,-3.96
248.28,-0.08,-0.16,-0.06,-8.98,0.13,-3.97
248.4,-0.15,0.04,-0.41,-9.0,0.12,-3.95
248.51,-0.0,0.01,0.02,-8.99,0.12,-3.97
248.63,-0.06,-0.0,-0.12,-8.97,0.12,-3.97
248.74,0.03,-0.04,0.22,-8.98,0.12,-3.97
248.86,-0.11,0.19,-0.2,-8.99,0.14,-3.97
248.97,-0.08,-0.13,0.03,-9.0,0.11,-3.97
249.08,0.01,-0.08,0.16,-8.98,0.13,-3.96
249.2,-0.17,0.06,-0.39,-8.99,0.15,-3.98
249.31,0.04,-0.14,0.16,-9.0,0.12,-3.97
249.43,0.12,-0.45,0.54,-8.99,0.15,-3.97
249.54,0.03,0.06,0.14,-8.97,0.13,-3.96
249.66,-0.32,0.39,-0.9,-8.98,0.12,-3.94
249.77,-0.29,-0.29,-0.68,-9.01,0.12,-3.96
249.88,-0.05,-0.2,0.11,-8.98,0.13,-3.96
250.0,0.06,-0.19,0.46,-8.99,0.13,-3.96
250.11,-0.31,-0.11,-0.76,-8.99,0.13,-3.98
250.23,0.01,-0.05,0.02,-8.98,0.12,-3.97
250.34,-0.09,0.07,-0.15,-8.99,0.13,-3.97
250.46,-0.06,-0.13,-0.03,-8.98,0.12,-3.97
250.57,0.06,-0.16,0.26,-8.98,0.12,-3.96
250.68,0.09,0.04,0.23,-8.99,0.13,-3.97
250.8,0.06,0.01,0.14,-8.99,0.13,-3.94
250.91,-0.29,0.39,-0.9,-8.97,0.12,-3.97
251.03,0.12,0.13,0.31,-8.99,0.12,-3.96
251.14,0.03,-0.14,0.16,-8.98,0.13,-3.96
251.25,-0.02,-0.04,0.08,-8.98,0.13,-3.96
251.37,-0.02,0.04,0.0,-8.98,0.14,-3.93
251.48,0.1,0.03,0.34,-8.97,0.13,-3.97
251.6,-0.06,-0.0,-0.13,-8.98,0.12,-3.96
251.71,-0.09,0.01,-0.12,-8.98,0.12,-3.94
251.83,-0.05,-0.02,-0.04,-8.98,0.12,-3.97
251.94,-0.03,-0.02,-0.01,-8.98,0.14,-3.97
252.05,-0.03,-0.02,0.03,-8.98,0.13,-3.97
252.17,0.03,-0.02,0.09,-8.99,0.13,-3.97
252.28,-0.03,-0.1,0.0,-8.98,0.14,-3.96
252.4,0.01,-0.0,0.02,-8.98,0.12,-3.97
252.51,-0.03,0.03,-0.04,-8.99,0.13,-3.95
252.63,0.03,-0.05,-0.03,-8.98,0.12,-3.97
252.74,-0.02,-0.04,0.02,-9.0,0.13,-3.97
252.86,-0.0,0.03,0.03,-8.98,0.14,-3.96
252.97,-0.03,0.06,0.05,-8.97,0.13,-3.96
253.08,0.03,0.04,0.05,-8.98,0.13,-3.98
253.2,-0.05,-0.02,-0.06,-8.99,0.13,-3.96
253.31,0.01,-0.07,0.06,-8.99,0.13,-3.99
253.43,-0.09,0.16,-0.29,-8.97,0.11,-3.99
253.54,-0.28,0.25,-0.79,-8.96,0.12,-3.95
253.66,-0.05,-0.11,0.03,-9.0,0.1,-3.92
253.77,0.29,0.09,0.78,-8.97,0.14,-3.96
253.88,0.14,0.03,0.38,-9.0,0.13,-3.97
254.0,0.1,0.07,0.32,-9.0,0.13,-3.99
254.11,-0.51,0.07,-1.17,-8.99,0.15,-3.96
254.23,-0.15,-0.13,-0.33,-8.98,0.12,-3.96
254.34,0.1,0.01,0.34,-8.97,0.13,-3.96
254.45,-0.06,0.01,-0.12,-8.98,0.15,-3.98
254.57,0.01,-0.08,0.16,-8.99,0.13,-3.98
254.68,0.1,-0.04,0.23,-8.97,0.12,-3.96
254.8,0.06,-0.0,0.2,-8.99,0.12,-3.98
254.91,-0.03,-0.02,-0.04,-8.97,0.14,-3.96
255.02,-0.12,-0.14,-0.3,-8.98,0.13,-3.97
255.14,0.1,-0.02,0.32,-8.98,0.13,-3.94
255.25,-0.03,-0.0,0.02,-8.98,0.12,-3.98
255.37,0.01,0.03,0.05,-8.99,0.13,-3.97
255.48,-0.02,-0.07,0.05,-8.97,0.14,-3.98
255.6,0.12,-0.16,0.32,-8.99,0.13,-3.96
255.71,-0.02,0.09,0.0,-9.0,0.12,-3.97
255.82,0.03,0.04,0.11,-8.98,0.15,-3.99
255.94,-0.06,-0.08,-0.13,-8.98,0.13,-3.95
256.05,-0.03,-0.07,0.06,-8.98,0.12,-3.97
256.17,-0.26,-0.02,-0.52,-8.97,0.13,-3.97
256.28,-0.03,0.04,-0.07,-8.99,0.11,-3.96
256.4,0.03,0.04,0.17,-9.0,0.12,-3.97
256.51,-0.09,-0.1,-0.12,-8.98,0.12,-3.95
256.62,-0.08,0.04,-0.17,-8.99,0.14,-3.97
256.74,0.23,-0.08,0.54,-8.98,0.14,-3.97
256.85,-0.25,-0.07,-0.49,-8.99,0.11,-3.95
256.97,0.03,0.01,0.14,-8.99,0.13,-3.97
257.08,0.17,-0.0,0.46,-8.97,0.13,-3.99
257.2,0.14,0.1,0.41,-8.99,0.12,-3.96
257.31,-0.26,0.09,-0.68,-8.97,0.12,-3.98
257.42,0.14,-0.0,0.38,-8.99,0.11,-3.94
257.54,0.1,0.06,0.22,-8.99,0.12,-3.96
257.65,-0.25,0.3,-0.7,-8.95,0.14,-3.97
257.77,0.1,0.04,0.37,-9.0,0.11,-3.96
257.88,0.01,-0.0,0.08,-8.98,0.12,-3.94
257.99,0.03,-0.04,0.08,-8.99,0.14,-3.98
258.11,0.04,-0.08,0.16,-8.98,0.12,-3.96
258.22,-0.02,-0.02,-0.13,-8.99,0.12,-3.98
258.34,-0.06,0.03,-0.1,-8.98,0.13,-3.97
258.45,0.04,0.03,0.06,-8.98,0.14,-3.97
258.57,0.17,-0.04,0.45,-8.97,0.13,-3.95
258.68,0.03,-0.05,0.02,-8.97,0.13,-3.97
258.79,0.04,-0.02,0.12,-8.99,0.13,-3.95
258.91,-0.06,-0.11,-0.07,-8.98,0.12,-3.94
259.02,-0.08,-0.04,-0.17,-8.98,0.15,-3.97
259.14,-0.14,-0.1,-0.23,-8.99,0.12,-3.98
259.25,0.04,-0.07,0.2,-8.99,0.12,-3.96
259.36,0.03,-0.07,0.11,-8.98,0.13,-3.97
259.48,-0.22,0.1,-0.64,-8.97,0.13,-3.97
259.59,0.1,-0.02,0.26,-8.98,0.11,-3.95
259.71,-0.14,-0.05,-0.24,-8.97,0.13,-4.0
259.82,0.06,-0.1,0.37,-8.99,0.12,-3.94
259.94,-0.15,0.18,-0.42,-8.97,0.11,-3.95
260.05,-0.02,-0.0,0.03,-8.98,0.13,-3.95
260.17,-0.0,-0.11,0.14,-8.99,0.13,-3.97
260.28,0.01,-0.05,0.06,-8.99,0.13,-3.95
260.39,-0.03,0.04,0.0,-8.98,0.12,-3.96
260.51,0.03,0.1,0.08,-8.97,0.13,-3.94
260.62,-0.11,-0.07,-0.15,-8.99,0.13,-3.97
260.74,0.15,-0.26,0.7,-8.98,0.14,-3.98
260.85,-0.08,-0.04,-0.17,-8.97,0.14,-3.97
260.97,-0.05,-0.05,-0.23,-9.0,0.15,-3.97
261.08,-0.23,0.15,-0.52,-8.98,0.15,-3.98
261.19,0.2,-0.29,0.69,-9.0,0.11,-3.95
261.31,-0.08,-0.2,-0.09,-8.98,0.14,-3.97
261.42,-0.19,0.16,-0.39,-8.97,0.13,-3.95
261.54,0.03,-0.04,0.17,-9.01,0.12,-3.96
265.88,0.09,0.09,0.31,-8.98,0.14,-3.97
265.99,-0.11,-0.13,-0.18,-8.99,0.13,-3.96
266.11,0.15,-0.07,0.26,-8.97,0.14,-3.96
266.22,0.06,0.09,0.14,-8.98,0.13,-3.97
266.33,-0.0,0.04,0.11,-8.99,0.14,-3.97
266.45,-0.05,-0.07,-0.1,-8.98,0.12,-3.98
266.56,-0.14,-0.0,-0.32,-8.99,0.11,-3.98
266.68,0.12,0.01,0.4,-8.99,0.12,-3.96
266.79,-0.23,-0.04,-0.47,-9.0,0.13,-3.97
266.91,-0.02,-0.2,0.05,-8.99,0.12,-3.96
267.02,0.01,-0.04,0.09,-8.98,0.13,-3.96
267.14,-0.05,-0.04,0.02,-8.99,0.12,-3.96
267.25,-0.2,0.03,-0.44,-8.97,0.12,-3.93
267.36,0.01,0.01,0.12,-8.99,0.11,-3.94
267.48,0.07,0.04,0.17,-8.98,0.13,-3.95
267.59,-0.05,-0.08,-0.13,-8.98,0.14,-3.96
267.71,-0.05,-0.02,-0.04,-8.98,0.13,-3.96
267.82,0.03,0.03,0.16,-8.98,0.15,-3.98
267.94,-0.0,-0.02,0.03,-8.98,0.13,-3.97
268.05,-0.06,-0.02,-0.2,-8.98,0.13,-3.96
268.16,-0.03,-0.04,-0.03,-9.0,0.13,-3.95
268.28,-0.12,-0.04,-0.01,-8.98,0.14,-3.95
268.39,-0.06,0.04,-0.03,-8.97,0.13,-3.95
268.51,0.06,0.01,0.14,-8.99,0.13,-3.95
268.62,-0.05,-0.02,-0.09,-8.96,0.13,-3.98
268.73,-0.08,0.21,-0.3,-9.0,0.12,-3.99
268.85,0.01,-0.1,0.03,-8.99,0.11,-3.99
268.96,-0.03,-0.0,-0.03,-8.97,0.13,-3.98
269.08,-0.05,0.1,-0.18,-8.98,0.14,-3.97
269.19,-0.02,-0.11,-0.03,-9.0,0.11,-3.95
269.31,0.06,0.03,0.09,-8.98,0.14,-3.96
269.42,-0.03,0.1,-0.06,-8.99,0.12,-3.96
269.54,0.03,-0.0,0.08,-8.99,0.12,-3.94
269.65,-0.02,-0.07,-0.06,-8.98,0.14,-3.99
269.76,-0.03,-0.1,0.0,-8.99,0.11,-3.96
269.88,0.03,-0.05,0.11,-8.99,0.12,-3.98
269.99,-0.06,-0.0,-0.07,-8.98,0.12,-3.94
270.11,-0.05,0.07,-0.15,-8.97,0.13,-3.97
270.22,-0.03,-0.23,-0.03,-8.98,0.13,-3.96
270.34,-0.12,-0.07,-0.17,-8.98,0.14,-3.94
270.45,0.18,-0.14,0.51,-8.98,0.1,-3.94
270.57,-0.15,0.1,-0.42,-8.96,0.12,-3.97
270.68,-0.15,-0.07,-0.29,-9.01,0.12,-3.96
270.79,0.03,0.03,0.06,-8.97,0.12,-3.95
270.91,-0.12,0.18,-0.42,-8.99,0.13,-3.97
271.02,0.06,0.16,0.14,-8.98,0.12,-3.97
271.14,0.14,-0.07,0.43,-8.98,0.13,-3.95
271.25,-0.03,-0.08,-0.12,-8.97,0.13,-3.96
271.36,-0.08,-0.07,-0.12,-8.98,0.11,-3.96
271.48,0.06,0.07,0.25,-8.98,0.14,-3.97
271.59,-0.05,-0.02,-0.23,-8.98,0.13,-3.96
271.71,0.07,0.03,0.23,-8.99,0.13,-3.96
271.82,-0.05,-0.02,-0.03,-9.0,0.13,-3.95
271.94,-0.2,-0.13,-0.42,-8.98,0.14,-3.97
272.05,0.12,-0.26,0.25,-8.99,0.13,-3.94
272.16,-0.02,-0.04,-0.01,-8.98,0.13,-3.97
272.28,-0.06,-0.1,-0.06,-8.98,0.13,-3.95
272.39,-0.03,0.01,-0.04,-9.0,0.12,-3.94
272.51,0.03,0.04,0.11,-8.97,0.13,-3.96
272.62,0.03,-0.13,0.28,-8.98,0.11,-3.96
272.74,-0.09,0.09,-0.17,-9.01,0.13,-3.96
272.85,0.03,0.03,0.17,-8.98,0.12,-3.97
272.96,-0.11,-0.11,-0.07,-8.99,0.14,-3.97
273.08,0.1,0.01,0.29,-8.97,0.13,-3.95
273.19,-0.06,0.03,-0.13,-8.99,0.12,-3.96
273.31,0.03,0.03,0.06,-8.98,0.13,-3.99
273.42,0.01,-0.13,0.09,-8.99,0.12,-3.97
273.54,-0.02,-0.0,0.0,-8.98,0.12,-3.95
273.65,-0.02,0.06,-0.01,-8.98,0.13,-3.96
273.76,-0.0,0.01,0.0,-8.99,0.14,-3.95
273.88,0.03,-0.04,0.11,-8.98,0.13,-3.97
273.99,-0.05,-0.04,-0.06,-8.98,0.12,-3.96
274.11,-0.02,0.03,0.0,-8.99,0.13,-3.96
274.22,0.03,0.03,0.05,-8.98,0.14,-3.95
274.33,-0.02,-0.02,-0.03,-8.99,0.13,-3.96
274.45,0.09,-0.0,0.2,-8.99,0.14,-3.98
274.56,0.06,-0.16,0.14,-8.97,0.14,-3.95
274.68,0.12,0.03,0.32,-8.99,0.13,-3.96
274.79,-0.17,0.06,-0.41,-8.99,0.14,-3.95
274.91,0.12,-0.13,0.34,-8.98,0.12,-3.93
275.02,0.07,0.01,0.2,-8.98,0.13,-3.97
275.13,-0.06,0.07,-0.13,-8.97,0.14,-3.97
275.25,-0.09,0.03,-0.17,-8.98,0.13,-3.95
275.36,0.04,-0.1,0.22,-8.99,0.11,-3.96
275.48,-0.03,0.01,-0.09,-8.97,0.13,-3.98
275.59,-0.03,-0.0,-0.1,-8.98,0.13,-3.97
275.7,0.09,-0.05,0.28,-8.96,0.12,-3.93
275.82,-0.08,-0.11,-0.04,-8.99,0.13,-3.96
275.94,-0.02,-0.1,0.05,-8.98,0.13,-3.96
276.05,0.04,0.03,0.09,-8.98,0.13,-3.96
276.16,-0.19,-0.0,-0.35,-8.98,0.11,-3.95
276.28,0.07,-0.11,0.22,-8.98,0.13,-3.97
276.39,-0.09,-0.07,-0.13,-9.0,0.13,-3.96
276.51,0.07,-0.07,0.11,-8.98,0.14,-3.96
276.62,0.1,-0.04,0.28,-8.97,0.13,-3.97
276.73,-0.15,-0.28,-0.24,-8.99,0.12,-3.97
276.85,-0.0,-0.05,0.12,-8.98,0.14,-3.94
276.96,-0.06,-0.07,-0.13,-8.99,0.12,-3.97
277.08,-0.02,-0.13,0.05,-8.98,0.13,-3.95
277.19,-0.11,-0.02,-0.18,-8.99,0.12,-3.97
277.31,-0.05,-0.02,-0.09,-8.98,0.12,-3.96
277.42,-0.06,-0.13,-0.04,-8.99,0.12,-3.97
277.54,-0.02,-0.14,0.05,-8.98,0.13,-3.97
277.65,-0.09,-0.23,-0.24,-9.0,0.13,-3.96
277.77,-0.15,0.07,-0.39,-8.97,0.13,-3.93
277.88,-0.05,0.01,-0.13,-8.97,0.13,-3.97
277.99,-0.12,0.04,-0.24,-8.97,0.12,-3.95
278.11,-0.22,0.06,-0.53,-8.97,0.12,-3.95
278.22,-0.08,-0.17,-0.18,-8.99,0.14,-3.99
278.34,0.27,0.12,0.58,-8.96,0.14,-3.97
278.45,0.04,0.06,0.02,-8.99,0.11,-3.96
278.56,-0.06,0.03,-0.12,-8.98,0.12,-3.95
278.68,-0.35,-0.05,-0.94,-8.99,0.13,-3.98
278.79,-0.15,-0.31,-0.17,-9.0,0.11,-3.94
278.91,-0.0,-0.07,0.09,-8.97,0.13,-3.96
279.02,-0.02,0.07,-0.04,-8.98,0.13,-3.97
279.14,-0.05,-0.05,0.0,-8.97,0.14,-3.97
279.25,-0.05,0.04,-0.04,-8.98,0.14,-3.96
279.36,-0.02,0.04,-0.06,-8.99,0.14,-3.95
279.48,0.03,-0.1,0.08,-8.98,0.13,-3.95
279.59,-0.05,-0.04,-0.13,-8.98,0.12,-3.95
279.71,-0.25,0.09,-0.61,-8.98,0.11,-3.96
279.82,-0.0,-0.16,0.17,-8.98,0.14,-3.96
279.94,0.23,-0.14,0.55,-8.99,0.13,-3.96
280.05,-0.19,0.13,-0.61,-8.97,0.12,-3.97
280.17,-0.15,0.25,-0.44,-8.98,0.13,-3.96
280.28,0.01,-0.07,0.06,-8.98,0.13,-3.99
280.39,-0.05,0.01,0.0,-8.98,0.13,-3.97
280.51,0.01,-0.08,0.09,-8.98,0.13,-3.95
280.62,-0.12,-0.0,-0.27,-8.98,0.15,-3.94
280.74,0.01,0.16,-0.01,-8.98,0.12,-3.97
280.85,-0.0,-0.04,-0.04,-8.98,0.13,-3.95
280.97,0.2,-0.04,0.52,-9.01,0.13,-3.96
281.08,-0.05,0.15,-0.17,-8.99,0.11,-3.96
281.19,0.17,0.13,0.37,-8.95,0.15,-3.98
281.31,0.06,-0.04,0.26,-8.97,0.12,-3.94
281.42,-0.22,-0.26,-0.38,-8.99,0.11,-3.94
281.54,0.15,0.03,0.37,-8.97,0.13,-3.95
281.65,-0.09,-0.04,-0.17,-9.01,0.12,-3.98
281.76,-0.06,-0.02,-0.21,-8.98,0.13,-3.97
281.88,0.17,0.01,0.46,-8.98,0.13,-3.95
281.99,-0.23,-0.05,-0.59,-8.99,0.13,-3.96
282.11,-0.11,0.04,-0.13,-8.96,0.14,-3.97
282.22,-0.05,-0.17,-0.07,-9.01,0.12,-3.95
282.34,-0.06,-0.04,-0.13,-9.0,0.12,-3.97
282.45,-0.23,0.12,-0.61,-8.96,0.14,-3.97
282.57,-0.12,-0.04,-0.2,-9.01,0.12,-3.94
282.68,0.03,-0.02,0.03,-8.98,0.13,-3.95
282.79,-0.0,-0.08,0.03,-8.98,0.13,-3.96
282.91,-0.09,0.09,-0.21,-9.0,0.13,-3.97
283.02,-0.06,0.06,-0.17,-8.98,0.14,-3.96
283.14,0.07,-0.02,0.25,-8.99,0.13,-3.98
283.25,0.09,-0.1,0.34,-8.98,0.14,-3.97
283.36,-0.23,-0.02,-0.49,-8.96,0.12,-3.96
283.48,0.15,0.09,0.32,-8.96,0.13,-3.96
283.59,-0.05,0.03,-0.06,-8.97,0.13,-3.96
283.71,-0.0,-0.08,-0.03,-8.96,0.13,-3.96
283.82,-0.0,0.01,-0.03,-8.98,0.13,-3.94
283.94,0.01,0.07,0.06,-8.99,0.13,-3.95
284.05,-0.03,0.04,-0.04,-8.98,0.13,-3.94
284.17,0.15,-0.14,0.45,-8.98,0.12,-3.95
284.28,-0.02,-0.05,-0.01,-8.97,0.13,-3.97
284.39,-0.12,0.03,-0.21,-8.98,0.13,-3.96
284.51,-0.03,0.01,-0.03,-8.98,0.12,-3.96
284.62,0.01,-0.08,0.14,-8.98,0.12,-3.97
284.74,-0.02,-0.04,-0.04,-8.97,0.12,-3.97
284.85,-0.02,-0.16,0.06,-8.99,0.12,-3.97
284.97,-0.09,-0.08,-0.18,-8.98,0.13,-3.97
285.08,0.09,-0.19,0.2,-8.99,0.13,-3.97
285.19,-0.25,0.09,-0.53,-8.97,0.12,-3.97
285.31,0.12,-0.04,0.31,-9.0,0.12,-3.96
285.42,-0.02,-0.04,-0.04,-8.98,0.13,-3.97
285.54,-0.06,-0.0,-0.04,-8.98,0.13,-3.96
285.65,0.03,0.04,0.02,-8.99,0.11,-3.97
285.77,0.06,-0.0,0.19,-8.99,0.13,-3.96
285.88,-0.19,-0.08,-0.36,-8.99,0.14,-3.96
286.0,-0.06,-0.05,-0.12,-8.99,0.11,-3.96
286.11,0.07,0.06,0.16,-8.98,0.13,-3.94
286.22,-0.15,-0.11,-0.39,-8.98,0.14,-3.99
286.34,-0.08,-0.14,-0.04,-8.97,0.13,-3.95
286.45,-0.02,0.06,-0.1,-8.98,0.12,-3.97
286.57,-0.03,0.09,-0.04,-8.97,0.14,-3.96
286.68,0.14,-0.26,0.55,-9.0,0.13,-3.98
286.79,-0.08,-0.02,-0.2,-8.97,0.13,-3.97
286.91,-0.05,0.15,-0.15,-8.98,0.13,-3.96
287.02,-0.0,0.01,0.09,-8.99,0.12,-3.94
287.14,-0.08,-0.05,-0.24,-8.97,0.14,-3.94
287.25,0.09,0.22,0.16,-8.96,0.16,-3.98
287.37,0.2,0.03,0.61,-8.99,0.14,-3.97
287.48,0.03,0.04,0.0,-8.97,0.13,-3.99
287.59,0.06,-0.04,0.09,-8.99,0.15,-3.96
287.71,-0.02,0.04,-0.1,-9.0,0.13,-3.95
287.82,-0.05,0.15,-0.18,-8.97,0.14,-3.97
287.94,-0.14,-0.02,-0.38,-9.0,0.13,-3.97
288.05,0.14,-0.0,0.38,-8.95,0.13,-3.95
288.17,0.01,0.06,-0.03,-8.98,0.13,-3.98
288.28,0.01,-0.0,-0.03,-8.99,0.13,-3.97
288.39,-0.0,-0.11,0.14,-8.98,0.14,-3.98
288.51,-0.06,0.12,-0.17,-8.98,0.12,-3.96
288.62,0.06,0.06,0.14,-8.98,0.13,-3.95
288.74,-0.09,-0.05,-0.13,-9.0,0.13,-3.95
288.85,0.01,-0.17,0.06,-8.98,0.12,-3.97
288.97,0.04,-0.05,0.2,-8.99,0.14,-3.99
289.08,-0.25,0.07,-0.56,-8.97,0.13,-3.97
289.19,-0.03,0.01,0.05,-9.0,0.13,-3.96
289.31,-0.03,0.01,-0.07,-8.96,0.13,-3.95
289.42,-0.03,-0.14,0.02,-8.98,0.13,-3.96
289.54,0.04,0.03,0.09,-8.97,0.13,-3.96
289.65,0.06,0.03,0.16,-8.98,0.12,-3.96
289.77,-0.06,-0.1,-0.07,-8.99,0.12,-3.97
289.88,0.04,-0.08,0.16,-8.99,0.13,-3.97
289.99,-0.0,-0.07,0.11,-8.98,0.12,-3.94
290.11,-0.12,0.07,-0.27,-8.98,0.13,-3.95
290.22,-0.0,-0.02,0.11,-8.98,0.13,-3.94
290.34,0.01,-0.08,0.12,-8.99,0.11,-3.96
290.45,-0.03,-0.02,0.02,-8.99,0.13,-3.94
290.57,0.03,-0.0,0.05,-8.97,0.13,-3.95
290.68,-0.12,0.03,-0.3,-8.99,0.12,-3.96
290.79,-0.0,-0.05,0.09,-8.98,0.13,-3.96
290.91,0.04,-0.14,0.06,-8.97,0.13,-3.96
291.02,-0.03,-0.04,-0.03,-8.98,0.13,-3.94
291.14,-0.06,-0.0,-0.18,-8.97,0.13,-3.95
291.25,0.04,0.04,0.19,-8.97,0.14,-3.97
291.36,0.07,-0.04,0.23,-8.99,0.12,-3.94
291.48,-0.08,-0.11,-0.18,-8.96,0.13,-3.96
291.59,0.07,0.06,0.19,-8.97,0.12,-3.95
291.71,0.03,-0.1,0.11,-8.98,0.14,-3.97
291.82,0.03,-0.19,0.11,-8.99,0.14,-3.96
291.94,0.99,-0.14,2.78,-8.99,0.12,-3.93
292.05,0.14,0.3,0.38,-8.97,0.14,-3.99
292.16,-0.38,-0.2,-0.97,-8.98,0.13,-3.97
292.28,0.12,-0.17,0.38,-9.0,0.12,-3.95
292.39,0.14,0.06,0.29,-8.98,0.13,-3.95
296.62,0.3,0.01,0.64,-8.97,0.14,-3.96
296.73,-0.0,0.03,0.06,-8.97,0.14,-3.96
296.85,-0.05,0.19,-0.07,-8.99,0.13,-3.95
296.96,-0.12,0.03,-0.27,-8.97,0.14,-3.97
297.08,0.04,-0.04,0.19,-9.0,0.13,-3.98
297.19,-0.0,0.04,-0.01,-8.99,0.13,-3.96
297.31,0.03,0.12,0.26,-8.98,0.14,-3.96
297.42,0.07,-0.05,0.23,-8.98,0.15,-3.98
297.53,-0.02,-0.25,0.02,-9.0,0.13,-3.97
297.65,-0.05,-0.08,-0.03,-8.98,0.14,-3.97
297.76,0.04,0.15,0.02,-8.99,0.15,-3.98
297.88,-0.14,0.12,-0.46,-8.99,0.13,-3.95
297.99,0.06,-0.04,0.14,-8.98,0.12,-3.95
298.1,-0.06,0.04,-0.17,-8.99,0.11,-3.96
298.22,-0.05,0.01,-0.12,-8.99,0.13,-3.96
298.33,-0.12,-0.2,-0.23,-8.98,0.12,-3.95
298.45,-0.0,-0.05,0.17,-8.98,0.12,-3.95
298.56,-0.03,0.07,-0.03,-8.98,0.13,-3.95
298.68,0.04,0.03,0.16,-8.99,0.12,-3.94
298.79,-0.0,-0.02,0.05,-8.99,0.14,-3.97
298.91,0.17,-0.14,0.45,-8.98,0.11,-3.95
299.02,-0.43,-0.14,-1.04,-8.97,0.13,-3.98
299.13,-0.05,0.06,-0.06,-8.98,0.13,-3.97
299.25,0.07,0.15,0.19,-8.99,0.14,-3.96
299.36,-0.0,0.06,0.0,-8.98,0.14,-3.96
299.48,-0.05,0.01,-0.13,-8.99,0.12,-3.95
299.59,-0.06,0.1,-0.18,-8.98,0.14,-3.96
299.7,-0.26,0.19,-0.61,-9.0,0.14,-3.96
299.82,0.21,0.07,0.51,-8.97,0.15,-3.97
299.93,0.01,-0.14,0.19,-8.99,0.13,-3.96
300.05,-0.11,-0.11,-0.17,-8.99,0.14,-3.98
300.16,0.09,-0.07,0.22,-8.97,0.15,-3.97
300.28,0.03,-0.13,0.0,-8.99,0.13,-3.95
300.39,0.01,0.22,-0.09,-8.99,0.16,-3.97
300.5,-0.06,0.19,-0.18,-8.97,0.13,-3.95
300.62,-0.03,-0.0,-0.06,-8.99,0.12,-3.97
300.73,0.03,-0.08,0.11,-8.97,0.15,-3.94
300.85,-0.23,-0.31,-0.52,-8.99,0.13,-3.94
300.96,-0.12,-0.22,-0.23,-8.97,0.14,-3.96
301.08,0.3,0.15,0.78,-8.96,0.13,-3.95
301.19,-0.51,-0.2,-1.04,-9.02,0.11,-3.98
301.3,-0.0,-0.42,0.16,-8.97,0.14,-3.96
301.42,0.15,-0.23,0.46,-8.99,0.13,-3.96
301.53,-0.09,0.16,-0.36,-8.97,0.13,-3.95
301.65,-0.14,0.27,-0.36,-8.97,0.13,-3.96
301.76,0.07,0.04,0.17,-8.99,0.14,-3.98
301.88,0.04,-0.1,0.19,-8.97,0.13,-3.95
301.99,-0.0,-0.16,0.03,-8.98,0.15,-3.95
302.1,0.21,-0.22,0.66,-8.96,0.11,-3.94
302.22,0.15,-0.1,0.48,-8.98,0.13,-3.97
302.33,0.12,-0.1,0.37,-8.99,0.11,-3.95
302.45,0.03,-0.04,0.19,-8.97,0.15,-3.96
302.56,-0.03,-0.16,0.17,-8.98,0.12,-3.96
302.67,-0.03,-0.04,-0.07,-8.99,0.12,-3.95
302.79,0.01,0.07,0.09,-8.98,0.13,-3.97
302.9,0.07,-0.02,0.23,-8.99,0.12,-3.96
303.02,0.04,-0.13,0.12,-8.99,0.12,-3.96
303.13,-0.0,0.09,0.05,-8.96,0.13,-3.99
303.25,-0.12,-0.1,-0.2,-8.98,0.12,-3.95
303.36,-0.05,-0.04,0.03,-8.98,0.12,-3.97
303.48,0.03,-0.13,0.14,-8.99,0.13,-3.96
303.59,-0.08,-0.1,-0.12,-8.99,0.13,-3.96
303.7,0.01,-0.0,-0.04,-8.98,0.14,-3.96
303.82,-0.08,-0.0,-0.2,-8.97,0.12,-3.95
303.93,-0.19,-0.16,-0.33,-9.0,0.11,-3.96
304.05,-0.02,-0.02,-0.03,-8.97,0.12,-3.95
304.16,-0.06,0.01,-0.07,-8.99,0.13,-3.95
304.28,0.01,0.01,0.02,-8.98,0.12,-3.98
304.39,-0.0,0.03,-0.03,-8.98,0.12,-3.95
304.5,-0.05,-0.04,-0.04,-8.99,0.12,-3.99
304.62,-0.0,-0.0,-0.01,-8.98,0.13,-3.98
304.73,0.06,-0.1,0.17,-8.99,0.13,-3.97
304.85,-0.15,-0.04,-0.26,-8.99,0.12,-3.97
304.96,-0.03,-0.0,-0.01,-8.99,0.13,-3.98
305.08,-0.03,0.01,-0.07,-8.98,0.14,-3.96
305.19,-0.02,-0.05,0.03,-8.97,0.13,-3.95
305.3,0.04,-0.05,0.19,-8.98,0.13,-3.97
305.42,-0.06,0.01,-0.13,-8.98,0.12,-3.96
305.53,-0.05,-0.0,-0.07,-8.99,0.13,-3.96
305.65,-0.14,-0.0,-0.38,-8.99,0.13,-3.96
305.76,-0.02,0.04,-0.01,-8.99,0.13,-3.96
305.88,-0.03,0.09,-0.01,-8.98,0.12,-3.95
305.99,0.04,-0.07,0.2,-8.98,0.12,-3.94
306.11,-0.12,-0.0,-0.26,-8.99,0.14,-3.97
306.22,0.01,-0.1,0.12,-8.99,0.14,-3.94
306.33,-0.05,-0.02,-0.03,-8.97,0.13,-3.96
306.45,-0.05,0.04,-0.09,-8.99,0.13,-3.95
306.56,-0.0,-0.05,0.12,-8.99,0.13,-3.98
306.68,-0.15,0.01,-0.36,-8.98,0.13,-3.94
306.79,0.1,-0.04,0.31,-8.99,0.13,-3.94
306.91,0.09,-0.19,0.4,-8.98,0.15,-3.95
307.02,-0.15,-0.04,-0.23,-8.99,0.14,-3.97
307.13,-0.05,0.03,-0.07,-8.97,0.12,-3.96
307.25,-0.0,0.06,0.02,-9.0,0.12,-3.97
307.36,0.07,-0.07,0.28,-8.97,0.14,-3.97
307.48,-0.02,0.03,-0.03,-9.0,0.12,-3.93
307.59,-0.03,0.03,-0.1,-8.99,0.13,-3.95
307.7,-0.09,-0.0,-0.04,-8.97,0.13,-3.97
307.82,0.06,-0.02,0.2,-8.98,0.13,-3.96
307.93,-0.05,-0.04,-0.12,-8.98,0.13,-3.95
308.05,0.06,-0.04,0.12,-8.99,0.14,-3.94
308.16,-0.02,-0.1,-0.01,-8.99,0.13,-3.96
308.28,-0.06,-0.0,-0.03,-8.97,0.13,-3.95
308.39,0.09,0.07,0.25,-8.98,0.14,-3.98
308.51,0.03,0.06,0.14,-8.96,0.14,-3.97
308.62,0.06,-0.14,0.26,-8.99,0.13,-3.95
308.73,-0.05,0.07,-0.12,-8.98,0.12,-3.96
308.85,0.04,0.03,0.19,-8.99,0.14,-3.95
308.96,-0.09,0.04,-0.18,-8.97,0.13,-3.97
309.08,0.17,0.01,0.45,-8.98,0.13,-3.96
309.19,-0.12,0.03,-0.26,-8.98,0.12,-3.96
309.3,0.15,-0.07,0.38,-8.97,0.12,-3.97
309.42,-0.19,-0.22,-0.36,-8.97,0.11,-3.94
309.53,-0.02,-0.05,-0.01,-8.98,0.12,-3.94
309.65,0.07,-0.02,0.16,-8.99,0.12,-3.95
309.76,-0.0,-0.0,0.11,-8.98,0.13,-3.97
309.88,-0.02,-0.07,-0.07,-8.97,0.12,-3.96
309.99,-0.08,0.03,-0.23,-8.97,0.12,-3.95
310.11,0.07,-0.04,0.28,-9.0,0.13,-3.96
310.22,-0.02,-0.04,0.05,-8.99,0.14,-3.97
310.33,0.04,-0.1,0.29,-8.97,0.12,-3.94
310.45,0.1,-0.23,0.37,-9.0,0.12,-3.97
310.56,-0.08,-0.04,-0.12,-8.98,0.13,-3.96
310.68,0.01,-0.0,0.11,-8.99,0.13,-3.95
310.79,0.14,-0.07,0.46,-8.98,0.13,-3.95
310.91,0.2,0.03,0.4,-8.98,0.13,-3.98
311.02,-0.28,0.07,-0.62,-9.0,0.13,-3.97
311.13,0.01,-0.13,0.09,-8.98,0.12,-3.94
311.25,-0.03,0.01,-0.13,-8.98,0.14,-3.99
311.36,-0.03,0.04,0.02,-8.98,0.14,-3.96
311.48,0.04,-0.16,0.19,-8.98,0.14,-3.94
311.59,-0.0,-0.0,-0.04,-8.99,0.12,-3.96
311.7,0.07,0.03,0.22,-8.98,0.13,-3.96
311.82,-0.05,0.01,-0.03,-8.98,0.14,-3.96
311.93,0.14,-0.1,0.37,-8.99,0.13,-3.99
312.05,-0.06,0.09,-0.2,-8.99,0.12,-3.97
312.16,-0.11,0.01,-0.27,-8.99,0.12,-3.97
312.27,0.03,0.04,0.05,-8.99,0.13,-3.95
312.39,-0.03,-0.07,-0.04,-8.99,0.13,-3.97
312.5,0.1,-0.07,0.31,-8.98,0.13,-3.94
312.62,-0.05,0.09,-0.04,-8.97,0.12,-3.94
312.73,0.01,0.07,-0.06,-8.98,0.14,-3.94
312.85,0.07,-0.07,0.22,-8.99,0.11,-3.96
312.96,-0.09,-0.16,-0.07,-9.0,0.12,-3.94
313.08,-0.0,0.06,0.05,-8.99,0.12,-3.96
313.19,-0.03,0.21,-0.17,-9.0,0.1,-3.94
313.3,-0.12,-0.02,-0.27,-8.98,0.11,-3.95
313.42,-0.09,0.13,-0.29,-8.99,0.15,-3.99
313.53,0.17,-0.22,0.51,-8.98,0.13,-3.94
313.65,0.01,-0.1,0.12,-9.0,0.11,-3.95
313.76,0.06,-0.0,0.16,-8.98,0.13,-3.95
313.88,-0.09,-0.13,-0.18,-9.01,0.12,-3.96
313.99,0.03,0.1,0.05,-8.97,0.15,-3.94
314.1,-0.05,0.12,-0.09,-8.98,0.13,-3.97
314.22,-0.14,-0.0,-0.32,-8.98,0.13,-3.98
314.33,-0.02,-0.11,0.03,-8.99,0.12,-3.96
314.45,0.17,0.15,0.29,-8.99,0.13,-3.96
314.56,-0.06,0.01,-0.04,-8.97,0.15,-3.97
314.67,0.01,0.03,0.14,-8.97,0.12,-3.98
314.79,-0.11,-0.04,-0.18,-8.98,0.12,-3.96
314.9,0.04,-0.07,0.22,-8.97,0.13,-3.99
315.02,-0.73,0.07,-2.01,-8.94,0.18,-3.97
315.13,0.15,0.03,0.54,-8.98,0.12,-3.95
315.25,0.18,-0.17,0.57,-8.99,0.12,-3.95
315.36,0.1,-0.02,0.29,-8.96,0.14,-3.97
315.47,-0.12,-0.0,-0.33,-8.97,0.13,-3.96
315.59,0.03,-0.1,0.08,-8.99,0.12,-3.95
315.7,-0.2,0.1,-0.5,-8.97,0.14,-3.96
315.82,-0.03,0.16,-0.01,-8.97,0.13,-3.96
320.16,-0.02,0.03,-0.06,-8.99,0.12,-3.97
320.27,-0.08,-0.02,-0.13,-8.99,0.12,-3.97
320.39,0.01,-0.1,0.06,-8.98,0.12,-3.97
320.5,0.07,-0.0,0.14,-8.99,0.13,-3.95
320.62,-0.03,0.09,-0.06,-8.98,0.14,-3.95
320.73,0.03,-0.07,0.09,-8.98,0.12,-3.97
320.85,-0.0,-0.05,-0.03,-8.99,0.13,-3.97
320.96,-0.09,-0.02,-0.1,-8.98,0.13,-3.96
321.08,-0.08,0.01,-0.15,-8.98,0.14,-3.95
321.19,0.03,-0.08,0.12,-8.99,0.14,-3.95
321.3,-0.0,-0.02,-0.01,-8.99,0.12,-3.95
321.42,-0.0,0.04,0.03,-8.98,0.14,-3.93
321.53,0.03,0.03,0.06,-8.99,0.13,-3.95
321.65,-0.06,-0.04,-0.1,-8.97,0.14,-3.96
321.76,0.14,-0.0,0.34,-8.98,0.12,-3.95
321.87,-0.02,0.03,0.02,-8.96,0.14,-3.96
321.99,-0.0,-0.08,0.05,-8.99,0.15,-3.95
322.1,0.01,-0.02,0.14,-8.98,0.14,-3.95
322.22,-0.06,-0.0,0.0,-8.98,0.12,-3.94
322.33,-0.0,-0.02,0.05,-8.98,0.12,-3.94
322.45,-0.02,0.01,-0.07,-8.99,0.13,-3.96
322.56,0.07,-0.08,0.2,-8.98,0.13,-3.95
322.67,-0.09,-0.07,-0.27,-8.98,0.12,-3.97
322.79,0.03,0.03,0.05,-8.99,0.13,-3.96
322.9,0.06,-0.04,0.19,-8.98,0.13,-3.94
323.02,-0.08,-0.07,-0.2,-8.98,0.12,-3.95
323.13,-0.08,-0.08,-0.15,-8.99,0.12,-3.98
323.25,-0.09,-0.13,-0.1,-9.0,0.12,-3.96
323.36,0.03,-0.02,0.14,-8.99,0.14,-3.99
323.48,-0.26,0.07,-0.64,-8.98,0.12,-3.94
323.59,-0.15,-0.04,-0.24,-8.99,0.14,-3.95
323.7,0.01,-0.0,0.08,-8.98,0.13,-3.95
323.82,-0.12,-0.0,-0.3,-8.99,0.13,-3.95
323.93,0.04,-0.0,0.05,-8.99,0.13,-3.95
324.05,0.01,0.03,0.03,-8.98,0.14,-3.94
324.16,-0.0,0.06,-0.01,-8.99,0.14,-3.96
324.27,-0.0,0.04,0.06,-8.98,0.12,-3.97
324.39,-0.02,-0.02,-0.01,-8.98,0.13,-3.98
324.5,-0.0,-0.02,-0.03,-8.98,0.13,-3.96
324.62,-0.02,-0.1,-0.01,-8.99,0.13,-3.95
324.73,-0.03,-0.07,-0.03,-8.97,0.14,-3.96
324.85,-0.03,-0.04,-0.04,-8.99,0.15,-3.95
324.96,-0.02,-0.02,-0.06,-8.97,0.13,-3.95
325.08,-0.02,0.01,0.02,-8.99,0.12,-3.96
325.19,-0.02,-0.05,-0.06,-9.0,0.13,-3.97
325.3,-0.02,-0.02,-0.03,-8.97,0.13,-3.95
325.42,-0.02,-0.02,0.03,-8.98,0.14,-3.97
325.53,-0.05,-0.04,-0.06,-8.99,0.13,-3.98
325.65,-0.0,0.01,0.0,-8.98,0.13,-3.96
325.76,-0.05,-0.0,-0.04,-9.0,0.13,-3.96
325.88,-0.08,-0.04,-0.12,-8.98,0.14,-3.97
325.99,-0.02,-0.02,0.03,-8.98,0.13,-3.98
326.11,0.06,-0.0,0.14,-8.99,0.14,-3.96
326.22,-0.03,0.01,-0.03,-8.99,0.13,-3.95
326.33,0.06,-0.04,0.16,-9.0,0.14,-3.95
326.45,-0.03,0.06,-0.1,-8.97,0.12,-3.94
