Time[s],RateRoll[deg/s],RatePitch[deg/s],RateYaw[deg/s],AccX[m/s^2],AccY[m/s^2],AccZ[m/s^2],Torque[Nm]
1352.85,1.23,-0.61,0.35,0.85,-9.25,-2.13,-0.02
1352.99,1.21,-0.58,0.24,0.86,-9.28,-2.12,-0.02
1353.12,1.18,-0.6,0.3,0.86,-9.31,-2.12,-0.02
1353.26,1.15,-0.66,0.46,0.86,-9.34,-2.14,-0.02
1353.4,1.16,-0.65,0.49,0.85,-9.33,-2.15,-0.02
1353.54,1.15,-0.65,0.52,0.84,-9.31,-2.17,-0.02
1353.67,1.17,-0.6,0.41,0.84,-9.29,-2.18,-0.02
1353.81,1.21,-0.56,0.33,0.85,-9.28,-2.18,-0.02
1353.95,1.21,-0.58,0.43,0.85,-9.27,-2.16,-0.02
1354.09,1.18,-0.58,0.44,0.84,-9.26,-2.15,-0.02
1354.22,1.14,-0.58,0.42,0.85,-9.27,-2.14,-0.02
1354.36,1.13,-0.6,0.45,0.87,-9.28,-2.16,-0.02
1354.5,1.14,-0.59,0.48,0.89,-9.3,-2.19,-0.02
1354.64,1.16,-0.59,0.5,0.89,-9.31,-2.22,-0.02
1354.77,1.19,-0.61,0.48,0.88,-9.31,-2.23,-0.02
1354.91,1.21,-0.62,0.5,0.84,-9.31,-2.22,-0.02
1355.05,1.21,-0.6,0.55,0.81,-9.31,-2.2,-0.02
1355.18,1.21,-0.58,0.52,0.81,-9.31,-2.18,-0.02
1355.32,1.23,-0.62,0.48,0.82,-9.31,-2.16,-0.02
1355.46,1.24,-0.69,0.51,0.83,-9.32,-2.14,-0.02
1355.6,1.25,-0.72,0.54,0.83,-9.33,-2.14,-0.02
1355.73,1.24,-0.72,0.56,0.83,-9.32,-2.17,-0.02
1355.87,1.22,-0.71,0.54,0.83,-9.31,-2.19,-0.02
1356.01,1.17,-0.7,0.47,0.83,-9.29,-2.18,-0.02
1356.15,1.15,-0.72,0.48,0.84,-9.27,-2.16,-0.02
1356.28,1.18,-0.68,0.5,0.84,-9.25,-2.15,-0.02
1356.42,1.22,-0.6,0.5,0.84,-9.24,-2.16,-0.02
1356.56,1.24,-0.59,0.51,0.86,-9.25,-2.16,-0.02
1356.7,1.23,-0.64,0.53,0.87,-9.27,-2.16,-0.02
1356.83,1.21,-0.69,0.54,0.88,-9.28,-2.16,-0.02
1356.97,1.21,-0.7,0.52,0.88,-9.31,-2.17,-0.02
1357.11,1.2,-0.66,0.48,0.87,-9.33,-2.18,-0.02
1357.25,1.18,-0.59,0.45,0.86,-9.33,-2.19,-0.02
1357.38,1.18,-0.59,0.45,0.84,-9.3,-2.18,-0.02
1357.52,1.21,-0.63,0.49,0.83,-9.26,-2.15,-0.02
1357.66,1.21,-0.63,0.49,0.83,-9.24,-2.13,-0.02
1357.8,1.18,-0.63,0.43,0.84,-9.25,-2.15,-0.02
1357.93,1.19,-0.65,0.4,0.85,-9.28,-2.17,-0.02
1358.07,1.22,-0.71,0.43,0.84,-9.31,-2.19,-0.02
1358.21,1.23,-0.75,0.49,0.83,-9.33,-2.21,-0.02
1358.34,1.22,-0.7,0.53,0.84,-9.34,-2.22,-0.02
1358.48,1.25,-0.57,0.42,0.85,-9.32,-2.22,-0.02
1358.62,1.29,-0.52,0.34,0.85,-9.3,-2.21,-0.02
1358.76,1.28,-0.57,0.41,0.85,-9.29,-2.19,-0.02
1358.9,1.25,-0.6,0.45,0.85,-9.29,-2.17,-0.02
1359.03,1.24,-0.6,0.46,0.86,-9.3,-2.16,-0.02
1359.17,1.2,-0.59,0.5,0.86,-9.31,-2.17,-0.02
1359.31,1.17,-0.56,0.5,0.86,-9.31,-2.18,-0.02
1359.44,1.18,-0.58,0.46,0.86,-9.3,-2.19,-0.02
1359.58,1.23,-0.65,0.42,0.86,-9.31,-2.19,-0.02
1359.72,1.27,-0.68,0.44,0.87,-9.32,-2.19,-0.02
1359.86,1.28,-0.62,0.48,0.86,-9.31,-2.19,-0.02
1359.99,1.25,-0.52,0.49,0.86,-9.3,-2.19,-0.02
1360.13,1.22,-0.48,0.47,0.85,-9.29,-2.18,-0.02
1360.27,1.2,-0.49,0.45,0.85,-9.29,-2.18,-0.02
1360.41,1.18,-0.54,0.43,0.86,-9.29,-2.17,-0.02
1360.55,1.18,-0.56,0.43,0.87,-9.29,-2.16,-0.02
1360.68,1.2,-0.58,0.48,0.88,-9.29,-2.16,-0.02
1360.82,1.23,-0.58,0.5,0.87,-9.29,-2.17,-0.02
1360.96,1.18,-0.58,0.47,0.87,-9.29,-2.19,-0.02
1361.09,1.12,-0.57,0.45,0.86,-9.29,-2.2,-0.02
1361.23,1.11,-0.6,0.47,0.86,-9.29,-2.22,-0.02
1361.37,1.15,-0.63,0.51,0.85,-9.28,-2.23,-0.02
1361.51,1.2,-0.63,0.53,0.84,-9.28,-2.21,-0.02
1361.64,1.22,-0.59,0.54,0.82,-9.28,-2.21,-0.02
1361.78,1.25,-0.56,0.56,0.8,-9.31,-2.21,-0.02
1361.92,1.27,-0.55,0.52,0.81,-9.33,-2.21,-0.02
1362.06,1.22,-0.57,0.49,0.84,-9.33,-2.19,-0.02
1362.19,1.17,-0.57,0.51,0.84,-9.32,-2.18,-0.02
1362.33,1.18,-0.54,0.52,0.85,-9.31,-2.17,-0.02
1362.47,1.22,-0.55,0.5,0.86,-9.3,-2.19,-0.02
1362.61,1.25,-0.58,0.46,0.86,-9.28,-2.2,-0.02
1362.74,1.29,-0.62,0.4,0.85,-9.27,-2.19,-0.02
1362.88,1.3,-0.68,0.36,0.83,-9.3,-2.18,-0.02
1363.02,1.24,-0.72,0.4,0.82,-9.33,-2.17,-0.02
1363.16,1.18,-0.71,0.47,0.82,-9.33,-2.17,-0.02
1363.29,1.16,-0.68,0.52,0.83,-9.32,-2.16,-0.02
1363.43,1.16,-0.65,0.52,0.85,-9.3,-2.17,-0.02
1363.57,1.21,-0.64,0.49,0.84,-9.3,-2.19,-0.02
1363.7,1.28,-0.63,0.46,0.83,-9.3,-2.2,-0.02
1363.84,1.31,-0.62,0.46,0.83,-9.3,-2.17,-0.02
1363.98,1.26,-0.59,0.46,0.84,-9.3,-2.14,-0.02
1364.12,1.21,-0.57,0.44,0.83,-9.3,-2.14,-0.02
1364.26,1.21,-0.6,0.45,0.82,-9.29,-2.16,-0.02
1364.39,1.2,-0.64,0.46,0.82,-9.29,-2.17,-0.02
1364.53,1.14,-0.66,0.46,0.83,-9.29,-2.17,-0.02
1364.67,1.09,-0.66,0.49,0.83,-9.29,-2.18,-0.02
1364.81,1.11,-0.67,0.5,0.83,-9.3,-2.19,-0.02
1364.94,1.14,-0.7,0.49,0.83,-9.31,-2.2,-0.02
1365.08,1.16,-0.72,0.52,0.82,-9.3,-2.19,-0.02
1365.22,1.14,-0.69,0.54,0.83,-9.3,-2.17,-0.02
1365.36,1.12,-0.63,0.55,0.84,-9.28,-2.15,-0.02
1365.49,1.13,-0.61,0.53,0.85,-9.26,-2.14,-0.02
1365.63,1.18,-0.64,0.49,0.85,-9.26,-2.15,-0.02
1365.77,1.22,-0.69,0.46,0.83,-9.24,-2.16,-0.02
1365.91,1.2,-0.74,0.46,0.83,-9.26,-2.17,-0.02
1366.04,1.18,-0.74,0.43,0.85,-9.3,-2.17,-0.02
1366.18,1.18,-0.68,0.37,0.85,-9.33,-2.17,-0.02
1366.32,1.16,-0.64,0.35,0.84,-9.32,-2.17,-0.02
1366.46,1.16,-0.65,0.37,0.85,-9.31,-2.17,-0.02
1366.59,1.21,-0.68,0.41,0.87,-9.31,-2.16,-0.02
1366.73,1.29,-0.71,0.49,0.87,-9.3,-2.15,-0.02
1366.87,1.33,-0.71,0.55,0.86,-9.3,-2.15,-0.02
1367.01,1.31,-0.66,0.58,0.84,-9.31,-2.15,-0.02
1367.14,1.25,-0.59,0.58,0.82,-9.31,-2.18,-0.02
1367.28,1.19,-0.56,0.55,0.82,-9.31,-2.2,-0.02
1367.42,1.18,-0.56,0.5,0.83,-9.29,-2.22,-0.02
1367.56,1.19,-0.58,0.46,0.85,-9.28,-2.22,-0.02
1367.69,1.18,-0.6,0.45,0.87,-9.28,-2.22,-0.02
1367.83,1.19,-0.6,0.48,0.88,-9.27,-2.22,-0.02
1367.97,1.22,-0.62,0.5,0.89,-9.28,-2.24,-0.02
1368.11,1.23,-0.69,0.5,0.88,-9.29,-2.26,-0.02
1368.24,1.2,-0.73,0.46,0.87,-9.31,-2.23,-0.02
1368.38,1.17,-0.71,0.45,0.86,-9.3,-2.2,-0.02
1368.52,1.19,-0.69,0.44,0.85,-9.31,-2.2,-0.02
1368.66,1.21,-0.69,0.41,0.85,-9.31,-2.21,-0.02
1368.79,1.22,-0.68,0.41,0.84,-9.3,-2.21,-0.02
1368.93,1.26,-0.67,0.44,0.83,-9.3,-2.19,-0.02
1369.07,1.27,-0.66,0.47,0.83,-9.3,-2.17,-0.02
1369.21,1.21,-0.61,0.49,0.83,-9.29,-2.17,-0.02
1369.34,1.15,-0.54,0.5,0.84,-9.28,-2.18,-0.02
1369.48,1.12,-0.52,0.48,0.85,-9.28,-2.19,-0.02
1369.62,1.11,-0.56,0.48,0.84,-9.28,-2.2,-0.02
1369.76,1.11,-0.63,0.51,0.83,-9.27,-2.2,-0.02
1369.89,1.11,-0.66,0.51,0.83,-9.25,-2.2,-0.02
1370.03,1.12,-0.63,0.48,0.84,-9.26,-2.18,-0.02
1370.17,1.12,-0.6,0.47,0.84,-9.29,-2.18,-0.02
1370.31,1.09,-0.61,0.47,0.84,-9.3,-2.19,-0.02
1370.44,1.1,-0.61,0.49,0.83,-9.31,-2.19,-0.02
1370.58,1.15,-0.61,0.51,0.84,-9.31,-2.17,-0.02
1370.72,1.22,-0.62,0.52,0.86,-9.32,-2.17,-0.02
1370.86,1.25,-0.63,0.51,0.86,-9.34,-2.16,-0.02
1370.99,1.26,-0.62,0.47,0.85,-9.33,-2.14,-0.02
1371.13,1.26,-0.57,0.45,0.84,-9.31,-2.15,-0.02
1371.27,1.25,-0.56,0.46,0.82,-9.28,-2.17,-0.02
1371.41,1.23,-0.58,0.47,0.81,-9.27,-2.19,-0.02
1371.54,1.22,-0.6,0.47,0.82,-9.27,-2.19,-0.02
1371.68,1.21,-0.61,0.47,0.84,-9.28,-2.18,-0.02
1371.82,1.22,-0.63,0.45,0.86,-9.27,-2.19,-0.02
1371.96,1.23,-0.64,0.42,0.88,-9.26,-2.19,-0.02
1372.09,1.25,-0.62,0.43,0.88,-9.26,-2.19,-0.02
1372.23,1.27,-0.63,0.51,0.87,-9.28,-2.19,-0.02
1372.37,1.25,-0.65,0.59,0.85,-9.29,-2.2,-0.02
1372.51,1.2,-0.67,0.6,0.84,-9.3,-2.22,-0.02
1372.64,1.16,-0.67,0.55,0.84,-9.31,-2.22,-0.02
1372.78,1.15,-0.64,0.47,0.85,-9.31,-2.2,-0.02
1372.92,1.18,-0.61,0.44,0.86,-9.32,-2.17,-0.02
1373.06,1.21,-0.63,0.47,0.86,-9.32,-2.17,-0.02
1373.19,1.21,-0.66,0.52,0.85,-9.32,-2.16,-0.02
1373.33,1.21,-0.67,0.54,0.85,-9.31,-2.15,-0.02
1373.47,1.21,-0.67,0.52,0.85,-9.32,-2.14,-0.02
1373.61,1.23,-0.66,0.51,0.83,-9.33,-2.13,-0.02
1373.74,1.24,-0.63,0.52,0.84,-9.33,-2.12,-0.02
1373.88,1.24,-0.62,0.53,0.85,-9.31,-2.12,-0.02
1374.02,1.21,-0.64,0.55,0.86,-9.3,-2.14,-0.02
1374.16,1.2,-0.64,0.54,0.85,-9.3,-2.15,-0.02
1374.29,1.25,-0.61,0.5,0.84,-9.31,-2.16,-0.02
1374.43,1.27,-0.61,0.48,0.84,-9.31,-2.16,-0.02
1374.57,1.24,-0.64,0.48,0.83,-9.29,-2.17,-0.02
1374.71,1.2,-0.65,0.49,0.82,-9.29,-2.17,-0.02
1374.84,1.2,-0.65,0.5,0.82,-9.3,-2.16,-0.02
1374.98,1.21,-0.64,0.48,0.84,-9.3,-2.14,-0.02
1375.12,1.16,-0.64,0.48,0.85,-9.3,-2.14,-0.02
1375.26,1.13,-0.64,0.47,0.86,-9.29,-2.16,-0.02
1375.39,1.19,-0.63,0.45,0.87,-9.28,-2.18,-0.02
1375.53,1.24,-0.65,0.44,0.85,-9.28,-2.19,-0.02
1375.67,1.22,-0.72,0.43,0.84,-9.29,-2.19,-0.02
1375.81,1.19,-0.79,0.46,0.84,-9.3,-2.19,-0.02
1375.94,1.2,-0.79,0.51,0.84,-9.3,-2.19,-0.02
1376.08,1.2,-0.74,0.53,0.85,-9.3,-2.18,-0.02
1376.22,1.19,-0.69,0.49,0.86,-9.3,-2.16,-0.02
1376.35,1.2,-0.64,0.49,0.86,-9.31,-2.15,-0.02
1376.49,1.21,-0.64,0.55,0.86,-9.32,-2.15,-0.02
1376.63,1.21,-0.66,0.59,0.86,-9.32,-2.16,-0.02
1376.77,1.2,-0.68,0.57,0.86,-9.32,-2.17,-0.02
1376.91,1.19,-0.71,0.52,0.86,-9.31,-2.16,-0.02
1377.04,1.19,-0.69,0.46,0.85,-9.29,-2.16,-0.02
1377.18,1.2,-0.65,0.43,0.85,-9.28,-2.16,-0.02
1377.32,1.2,-0.65,0.42,0.84,-9.27,-2.16,-0.02
1377.45,1.18,-0.64,0.37,0.84,-9.28,-2.15,-0.02
1377.59,1.2,-0.61,0.35,0.85,-9.29,-2.14,-0.02
1377.73,1.22,-0.55,0.39,0.86,-9.3,-2.14,-0.02
1377.87,1.23,-0.53,0.46,0.88,-9.3,-2.16,-0.02
1378.01,1.24,-0.58,0.49,0.88,-9.29,-2.18,-0.02
1378.14,1.24,-0.62,0.49,0.87,-9.28,-2.2,-0.02
1378.28,1.23,-0.59,0.48,0.85,-9.26,-2.2,-0.02
1378.42,1.22,-0.56,0.48,0.84,-9.25,-2.19,-0.02
1378.56,1.21,-0.61,0.49,0.84,-9.26,-2.2,-0.02
1378.69,1.19,-0.67,0.51,0.86,-9.29,-2.18,-0.02
1378.83,1.17,-0.66,0.5,0.88,-9.3,-2.15,-0.02
1378.97,1.19,-0.64,0.51,0.87,-9.3,-2.14,-0.02
1379.1,1.24,-0.61,0.51,0.86,-9.3,-2.15,-0.02
1379.24,1.28,-0.59,0.49,0.85,-9.31,-2.16,-0.02
1379.38,1.29,-0.56,0.47,0.86,-9.32,-2.17,-0.02
1379.52,1.26,-0.51,0.49,0.86,-9.32,-2.17,-0.02
1379.66,1.24,-0.49,0.46,0.85,-9.32,-2.17,-0.02
1379.79,1.22,-0.52,0.41,0.85,-9.31,-2.17,-0.02
1379.93,1.22,-0.56,0.42,0.85,-9.31,-2.17,-0.02
1380.07,1.23,-0.58,0.49,0.86,-9.3,-2.18,-0.02
1380.2,1.22,-0.58,0.56,0.86,-9.29,-2.19,-0.02
1380.34,1.18,-0.61,0.57,0.86,-9.28,-2.18,-0.02
1380.48,1.17,-0.61,0.52,0.86,-9.28,-2.17,-0.02
1380.62,1.17,-0.59,0.5,0.86,-9.29,-2.17,-0.02
1380.76,1.18,-0.59,0.5,0.86,-9.3,-2.17,-0.02
1380.89,1.21,-0.56,0.46,0.86,-9.3,-2.17,-0.02
1381.03,1.19,-0.52,0.44,0.85,-9.3,-2.18,-0.02
1381.17,1.18,-0.54,0.45,0.85,-9.29,-2.18,-0.02
1381.31,1.19,-0.6,0.48,0.86,-9.28,-2.18,-0.02
1381.44,1.23,-0.61,0.46,0.86,-9.29,-2.16,-0.02
1381.58,1.25,-0.59,0.4,0.87,-9.32,-2.13,-0.02
1381.72,1.25,-0.58,0.42,0.88,-9.32,-2.13,-0.02
1381.85,1.23,-0.57,0.51,0.88,-9.31,-2.14,-0.02
1381.99,1.23,-0.57,0.54,0.87,-9.29,-2.15,-0.02
1382.13,1.24,-0.59,0.48,0.86,-9.28,-2.15,-0.02
1382.27,1.23,-0.62,0.45,0.83,-9.28,-2.17,-0.02
1382.41,1.2,-0.62,0.5,0.82,-9.28,-2.2,-0.02
1382.54,1.19,-0.6,0.54,0.84,-9.28,-2.2,-0.02
1382.68,1.23,-0.59,0.53,0.86,-9.27,-2.2,-0.02
1382.82,1.27,-0.6,0.47,0.86,-9.27,-2.2,-0.02
1382.96,1.26,-0.63,0.41,0.85,-9.28,-2.2,-0.02
1383.09,1.22,-0.64,0.38,0.83,-9.29,-2.18,-0.02
1383.23,1.19,-0.65,0.41,0.83,-9.29,-2.15,-0.02
1383.37,1.16,-0.65,0.49,0.82,-9.29,-2.11,-0.02
1383.51,1.12,-0.61,0.54,0.82,-9.29,-2.1,-0.02
1383.64,1.11,-0.57,0.52,0.81,-9.3,-2.11,-0.02
1383.78,1.14,-0.6,0.5,0.8,-9.31,-2.15,-0.02
1383.92,1.18,-0.65,0.49,0.81,-9.32,-2.18,-0.02
1384.06,1.19,-0.65,0.47,0.83,-9.32,-2.19,-0.02
1384.19,1.19,-0.63,0.5,0.85,-9.32,-2.19,-0.02
1384.33,1.17,-0.64,0.52,0.86,-9.31,-2.18,-0.02
1384.47,1.15,-0.64,0.49,0.87,-9.3,-2.19,-0.02
1384.61,1.14,-0.64,0.47,0.87,-9.29,-2.19,-0.02
1384.74,1.16,-0.65,0.47,0.87,-9.29,-2.2,-0.02
1384.88,1.2,-0.63,0.44,0.87,-9.29,-2.21,-0.02
1385.02,1.22,-0.64,0.43,0.87,-9.28,-2.2,-0.02
1385.16,1.23,-0.69,0.43,0.86,-9.28,-2.17,-0.02
1385.29,1.22,-0.7,0.42,0.85,-9.27,-2.15,-0.02
1385.43,1.22,-0.69,0.47,0.85,-9.27,-2.17,-0.02
1385.57,1.25,-0.66,0.54,0.86,-9.28,-2.2,-0.02
1385.7,1.28,-0.63,0.53,0.86,-9.29,-2.22,-0.02
1385.84,1.29,-0.61,0.5,0.87,-9.29,-2.24,-0.02
1385.98,1.29,-0.62,0.52,0.87,-9.3,-2.23,-0.02
1386.12,1.3,-0.63,0.55,0.86,-9.3,-2.21,-0.02
1386.26,1.29,-0.6,0.54,0.84,-9.3,-2.21,-0.02
1386.39,1.26,-0.56,0.51,0.81,-9.3,-2.21,-0.02
1386.53,1.19,-0.55,0.53,0.81,-9.3,-2.21,-0.02
1386.67,1.11,-0.58,0.57,0.82,-9.28,-2.21,-0.02
1386.81,1.1,-0.59,0.54,0.84,-9.27,-2.21,-0.02
1386.94,1.16,-0.58,0.47,0.85,-9.28,-2.2,-0.02
1387.08,1.21,-0.6,0.47,0.85,-9.29,-2.18,-0.02
1387.22,1.21,-0.61,0.5,0.85,-9.3,-2.16,-0.02
1387.35,1.21,-0.58,0.51,0.86,-9.31,-2.16,-0.02
1387.49,1.22,-0.55,0.49,0.86,-9.3,-2.18,-0.02
1387.63,1.2,-0.58,0.46,0.86,-9.3,-2.19,-0.02
1387.77,1.17,-0.65,0.46,0.86,-9.29,-2.2,-0.02
1387.9,1.21,-0.72,0.47,0.86,-9.29,-2.2,-0.02
1388.04,1.28,-0.75,0.46,0.85,-9.3,-2.19,-0.02
1388.18,1.32,-0.74,0.44,0.84,-9.29,-2.17,-0.02
1388.32,1.31,-0.69,0.42,0.83,-9.28,-2.14,-0.02
1388.45,1.26,-0.65,0.46,0.82,-9.27,-2.14,-0.02
1388.59,1.22,-0.65,0.51,0.82,-9.28,-2.15,-0.02
1388.73,1.23,-0.63,0.55,0.82,-9.29,-2.16,-0.02
1388.87,1.26,-0.58,0.6,0.84,-9.3,-2.17,-0.02
1389.0,1.27,-0.55,0.57,0.87,-9.31,-2.18,-0.02
1389.14,1.25,-0.55,0.5,0.87,-9.31,-2.18,-0.02
1389.28,1.24,-0.58,0.47,0.87,-9.31,-2.18,-0.02
1389.42,1.24,-0.58,0.45,0.86,-9.3,-2.17,-0.02
1389.55,1.23,-0.57,0.43,0.86,-9.3,-2.15,-0.02
1389.69,1.22,-0.58,0.44,0.85,-9.31,-2.15,-0.02
1389.83,1.21,-0.57,0.49,0.84,-9.31,-2.17,-0.02
1389.97,1.18,-0.56,0.49,0.82,-9.31,-2.18,-0.02
1390.1,1.16,-0.59,0.47,0.83,-9.32,-2.2,-0.02
1390.24,1.19,-0.64,0.5,0.84,-9.32,-2.2,-0.02
1390.38,1.23,-0.69,0.6,0.84,-9.3,-2.19,-0.02
1390.52,1.23,-0.75,0.76,0.84,-9.28,-2.18,-0.02
1390.65,1.21,-0.78,0.79,0.82,-9.3,-2.17,-0.02
1390.79,1.18,-0.74,0.62,0.83,-9.33,-2.18,-0.02
1390.93,1.18,-0.69,0.49,0.84,-9.34,-2.17,-0.02
1391.07,1.22,-0.65,0.49,0.85,-9.34,-2.18,-0.02
1391.2,1.25,-0.61,0.5,0.86,-9.35,-2.18,-0.02
1391.34,1.25,-0.6,0.51,0.86,-9.36,-2.18,-0.02
1391.48,1.26,-0.6,0.53,0.86,-9.34,-2.18,-0.02
1391.62,1.25,-0.6,0.54,0.86,-9.31,-2.18,-0.02
1391.75,1.21,-0.58,0.5,0.85,-9.29,-2.17,-0.02
1391.89,1.18,-0.58,0.46,0.84,-9.3,-2.15,-0.02
1392.03,1.19,-0.62,0.5,0.83,-9.3,-2.14,-0.02
1392.17,1.21,-0.66,0.54,0.82,-9.3,-2.16,-0.02
1392.3,1.23,-0.66,0.49,0.82,-9.3,-2.17,-0.02
1392.44,1.22,-0.68,0.46,0.83,-9.3,-2.17,-0.02
1392.58,1.21,-0.71,0.49,0.84,-9.3,-2.16,-0.02
1392.71,1.22,-0.7,0.54,0.85,-9.29,-2.15,-0.02
1392.85,1.25,-0.66,0.62,0.85,-9.29,-2.14,-0.02
1392.99,1.28,-0.65,0.73,0.84,-9.3,-2.14,-0.02
1393.13,1.34,-0.67,0.74,0.82,-9.33,-2.15,-0.02
1393.26,1.37,-0.65,0.57,0.83,-9.34,-2.17,-0.02
1393.4,1.33,-0.65,0.42,0.84,-9.33,-2.19,-0.02
1393.54,1.28,-0.66,0.39,0.86,-9.32,-2.18,-0.02
1393.68,1.23,-0.65,0.43,0.87,-9.31,-2.17,-0.02
1393.81,1.17,-0.62,0.49,0.87,-9.29,-2.17,-0.02
1393.95,1.11,-0.63,0.52,0.87,-9.28,-2.17,-0.02
1394.09,1.11,-0.68,0.47,0.85,-9.29,-2.19,-0.02
1394.23,1.13,-0.71,0.38,0.84,-9.3,-2.18,-0.02
1394.36,1.15,-0.68,0.35,0.84,-9.29,-2.18,-0.02
1394.5,1.12,-0.66,0.45,0.84,-9.29,-2.17,-0.02
1394.64,1.1,-0.64,0.53,0.85,-9.29,-2.17,-0.02
1394.78,1.12,-0.64,0.5,0.86,-9.29,-2.17,-0.02
1394.91,1.18,-0.66,0.51,0.86,-9.29,-2.18,-0.02
1395.05,1.21,-0.65,0.54,0.85,-9.3,-2.19,-0.02
1395.19,1.2,-0.61,0.52,0.83,-9.3,-2.21,-0.02
1395.33,1.18,-0.61,0.5,0.81,-9.28,-2.2,-0.02
1395.46,1.18,-0.61,0.47,0.82,-9.27,-2.19,-0.02
1395.6,1.19,-0.57,0.44,0.83,-9.28,-2.18,-0.02
1395.74,1.22,-0.54,0.46,0.85,-9.29,-2.17,-0.02
1395.88,1.25,-0.52,0.48,0.87,-9.29,-2.18,-0.02
1396.01,1.25,-0.53,0.48,0.89,-9.28,-2.18,-0.02
1396.15,1.25,-0.59,0.45,0.88,-9.28,-2.19,-0.02
1396.29,1.27,-0.61,0.4,0.86,-9.28,-2.18,-0.02
1396.43,1.25,-0.58,0.39,0.84,-9.29,-2.16,-0.02
1396.56,1.19,-0.56,0.44,0.83,-9.29,-2.15,-0.02
1396.7,1.16,-0.55,0.48,0.84,-9.28,-2.15,-0.02
1396.84,1.15,-0.53,0.51,0.85,-9.28,-2.16,-0.02
1396.98,1.14,-0.51,0.52,0.84,-9.29,-2.16,-0.02
1397.11,1.15,-0.5,0.5,0.83,-9.31,-2.17,-0.02
1397.25,1.15,-0.54,0.5,0.83,-9.32,-2.18,-0.02
1397.39,1.16,-0.57,0.55,0.84,-9.33,-2.19,-0.02
1397.53,1.18,-0.54,0.56,0.86,-9.32,-2.2,-0.02
1397.66,1.16,-0.52,0.55,0.87,-9.31,-2.19,-0.02
1397.8,1.08,-0.57,0.7,0.87,-9.3,-2.16,-0.02
1397.94,1.06,-0.62,0.88,0.89,-9.31,-2.14,-0.02
1398.07,1.12,-0.59,0.74,0.89,-9.32,-2.14,-0.02
1398.21,1.17,-0.54,0.46,0.88,-9.31,-2.15,-0.02
1398.35,1.17,-0.52,0.37,0.86,-9.3,-2.17,-0.02
1398.49,1.16,-0.52,0.4,0.84,-9.3,-2.18,-0.02
1398.63,1.19,-0.54,0.45,0.84,-9.3,-2.18,-0.02
1398.76,1.22,-0.57,0.51,0.86,-9.32,-2.18,-0.02
1398.9,1.25,-0.61,0.59,0.85,-9.34,-2.19,-0.02
1399.04,1.29,-0.6,0.63,0.85,-9.34,-2.21,-0.02
1399.17,1.33,-0.56,0.58,0.85,-9.33,-2.18,-0.02
1399.31,1.32,-0.56,0.55,0.84,-9.31,-2.14,-0.02
1399.45,1.3,-0.57,0.48,0.83,-9.3,-2.12,-0.02
1399.59,1.26,-0.55,0.44,0.83,-9.28,-2.14,-0.02
1399.72,1.22,-0.55,0.46,0.83,-9.28,-2.17,-0.02
1399.86,1.21,-0.58,0.46,0.84,-9.29,-2.18,-0.02
1400.0,1.2,-0.64,0.45,0.84,-9.29,-2.19,-0.02
1400.14,1.18,-0.68,0.45,0.84,-9.29,-2.17,-0.02
1400.27,1.14,-0.69,0.46,0.85,-9.3,-2.15,-0.02
1400.41,1.08,-0.62,0.44,0.86,-9.31,-2.16,-0.02
1400.55,1.08,-0.54,0.44,0.85,-9.31,-2.16,-0.02
1400.69,1.09,-0.54,0.46,0.85,-9.31,-2.16,-0.02
1400.82,1.11,-0.56,0.46,0.85,-9.31,-2.16,-0.02
1400.96,1.09,-0.61,0.46,0.84,-9.3,-2.17,-0.02
1401.1,1.07,-0.68,0.53,0.83,-9.28,-2.16,-0.02
1401.24,1.12,-0.69,0.57,0.84,-9.25,-2.16,-0.02
1401.37,1.2,-0.64,0.52,0.84,-9.25,-2.16,-0.02
1401.51,1.24,-0.59,0.47,0.84,-9.26,-2.15,-0.02
1401.65,1.26,-0.57,0.5,0.85,-9.27,-2.14,-0.02
1401.79,1.25,-0.55,0.52,0.85,-9.28,-2.15,-0.02
1401.92,1.22,-0.54,0.53,0.86,-9.28,-2.19,-0.02
1402.06,1.19,-0.57,0.53,0.85,-9.28,-2.2,-0.02
1402.2,1.17,-0.58,0.49,0.84,-9.29,-2.19,-0.02
1402.34,1.19,-0.6,0.46,0.84,-9.3,-2.18,-0.02
1402.47,1.22,-0.64,0.48,0.83,-9.29,-2.18,-0.02
1402.61,1.22,-0.67,0.5,0.82,-9.28,-2.18,-0.02
1402.75,1.21,-0.68,0.51,0.82,-9.27,-2.19,-0.02
1402.89,1.16,-0.68,0.53,0.82,-9.27,-2.18,-0.02
1403.02,1.1,-0.67,0.52,0.84,-9.28,-2.16,-0.02
1403.16,1.09,-0.64,0.5,0.85,-9.3,-2.16,-0.02
1403.3,1.1,-0.61,0.43,0.84,-9.32,-2.18,-0.02
1403.44,1.14,-0.6,0.37,0.84,-9.33,-2.19,-0.02
1403.57,1.2,-0.62,0.44,0.84,-9.32,-2.17,-0.02
1403.71,1.24,-0.63,0.52,0.85,-9.32,-2.15,-0.02
1403.85,1.26,-0.63,0.52,0.84,-9.32,-2.15,-0.02
1403.99,1.25,-0.61,0.52,0.84,-9.33,-2.16,-0.02
1404.12,1.22,-0.6,0.52,0.83,-9.32,-2.18,-0.02
1404.26,1.2,-0.59,0.49,0.83,-9.31,-2.2,-0.02
1404.4,1.19,-0.57,0.45,0.82,-9.29,-2.19,-0.02
1404.54,1.16,-0.56,0.49,0.83,-9.29,-2.17,-0.02
1404.67,1.12,-0.57,0.58,0.85,-9.29,-2.15,-0.02
1404.81,1.11,-0.59,0.61,0.86,-9.3,-2.15,-0.02
1404.95,1.15,-0.62,0.57,0.85,-9.3,-2.16,-0.02
1405.09,1.19,-0.62,0.5,0.85,-9.3,-2.16,-0.02
1405.22,1.22,-0.6,0.44,0.84,-9.31,-2.16,-0.02
1405.36,1.22,-0.59,0.44,0.85,-9.33,-2.17,-0.02
1405.5,1.22,-0.59,0.44,0.86,-9.33,-2.18,-0.02
1405.64,1.2,-0.62,0.43,0.86,-9.32,-2.19,-0.02
1405.77,1.18,-0.65,0.42,0.85,-9.31,-2.21,-0.02
1405.91,1.2,-0.68,0.43,0.86,-9.29,-2.21,-0.02
1406.05,1.23,-0.7,0.43,0.86,-9.28,-2.19,-0.02
1406.19,1.23,-0.67,0.35,0.85,-9.26,-2.16,-0.02
1406.32,1.2,-0.65,0.3,0.83,-9.24,-2.14,-0.02
1406.46,1.16,-0.71,0.42,0.84,-9.24,-2.16,-0.02
1406.6,1.13,-0.76,0.54,0.86,-9.26,-2.19,-0.02
1406.74,1.13,-0.78,0.6,0.85,-9.27,-2.21,-0.02
1406.87,1.17,-0.77,0.61,0.84,-9.31,-2.2,-0.02
1407.01,1.26,-0.71,0.53,0.85,-9.36,-2.18,-0.02
1407.15,1.34,-0.66,0.48,0.87,-9.38,-2.17,-0.02
1407.29,1.38,-0.61,0.47,0.87,-9.36,-2.19,-0.02
1407.42,1.37,-0.55,0.45,0.86,-9.33,-2.2,-0.02
1407.56,1.33,-0.52,0.45,0.86,-9.31,-2.19,-0.02
1407.7,1.31,-0.55,0.44,0.87,-9.3,-2.19,-0.02
1407.83,1.28,-0.58,0.42,0.87,-9.27,-2.18,-0.02
1407.97,1.24,-0.58,0.42,0.85,-9.26,-2.17,-0.02
1408.11,1.19,-0.59,0.46,0.83,-9.29,-2.17,-0.02
1408.25,1.16,-0.63,0.56,0.82,-9.3,-2.16,-0.02
1408.38,1.18,-0.63,0.6,0.82,-9.31,-2.15,-0.02
1408.52,1.25,-0.61,0.52,0.82,-9.31,-2.16,-0.02
1408.66,1.28,-0.62,0.46,0.82,-9.3,-2.17,-0.02
1408.8,1.29,-0.62,0.41,0.83,-9.3,-2.18,-0.02
1408.94,2.21,-7.45,-1.02,1.1,-9.7,-2.15,-0.02
1409.07,12.01,-19.95,-3.58,1.58,-10.49,-1.98,-0.02
1409.21,30.46,-23.34,-2.83,1.72,-10.6,-1.34,-0.02
1409.35,41.72,-14.95,-4.76,1.6,-10.13,-0.3,-0.02
1409.48,36.85,-5.04,-17.74,1.65,-9.95,0.56,-0.01
1409.62,14.27,-2.62,-36.68,2.18,-9.73,1.03,-0.01
1409.76,-12.47,-5.54,-48.0,3.26,-9.18,1.02,-0.01
1409.9,-22.76,-13.13,-36.84,4.44,-8.7,0.55,-0.01
1410.03,-17.38,-28.29,-10.73,5.24,-8.53,0.07,-0.01
1410.17,-6.55,-42.7,7.73,5.44,-8.43,-0.06,-0.01
1410.31,4.21,-48.79,11.62,4.94,-8.25,-0.13,-0.01
1410.45,14.06,-49.12,7.5,4.01,-8.41,-0.55,-0.01
1410.58,23.09,-48.94,0.69,3.22,-8.91,-1.04,-0.01
1410.72,24.69,-46.7,-11.38,2.92,-9.2,-1.06,-0.01
1410.86,17.25,-34.12,-23.58,2.96,-9.07,-0.73,-0.01
1411.0,12.61,-15.52,-18.75,3.08,-8.81,-0.53,-0.01
1411.13,15.16,-7.19,-0.89,3.08,-8.81,-0.5,-0.01
1411.27,18.83,-12.98,27.89,2.73,-8.85,-0.39,-0.01
1411.41,20.35,-23.97,67.41,1.85,-8.77,-0.17,-0.01
1411.55,19.39,-29.79,69.75,0.71,-8.99,0.03,-0.01
1411.68,17.92,-26.29,23.3,0.21,-9.35,0.28,-0.02
1411.82,15.63,-15.67,-15.73,0.68,-9.58,0.61,-0.03
1411.96,11.5,-4.05,-22.16,1.36,-9.75,0.9,-0.02
1412.1,7.71,1.8,-8.63,1.56,-9.83,1.07,-0.02
1412.23,6.05,2.13,7.11,1.32,-9.8,1.14,-0.02
1412.37,7.17,0.75,11.72,0.94,-9.72,1.21,-0.02
1412.51,9.05,-0.1,7.93,0.62,-9.65,1.31,-0.01
1412.65,8.1,0.23,1.32,0.49,-9.55,1.47,-0.01
1412.78,5.09,0.76,-8.03,0.66,-9.35,1.66,-0.01
1412.92,3.11,-0.05,-19.25,1.17,-9.14,1.71,-0.01
1413.06,1.9,-2.67,-26.1,1.8,-9.14,1.64,0.0
1413.19,-0.27,-5.31,-24.97,2.34,-9.31,1.56,0.02
1413.33,-2.31,-6.79,-14.7,2.7,-9.49,1.44,0.03
1413.47,-2.03,-7.44,2.32,2.72,-9.69,1.32,0.06
1413.61,-0.34,-6.9,15.29,2.43,-9.81,1.2,0.07
1413.74,0.38,-6.22,20.67,2.1,-9.77,1.09,0.07
1413.88,-0.75,-6.21,18.71,1.79,-9.71,1.01,0.08
1414.02,-2.38,-6.64,12.51,1.54,-9.71,0.95,0.11
1414.16,-3.22,-7.3,10.28,1.32,-9.73,0.88,0.12
1414.3,-4.07,-7.23,10.38,1.13,-9.69,0.76,0.13
1414.43,-4.53,-6.35,7.87,1.03,-9.63,0.63,0.13
1414.57,-2.92,-4.81,5.18,0.94,-9.64,0.59,0.14
1414.71,-0.32,-3.07,4.84,0.81,-9.71,0.59,0.14
1414.84,0.72,-1.15,-3.05,0.83,-9.9,0.61,0.12
1414.98,3.83,2.21,-13.29,1.09,-10.08,0.7,0.12
1415.12,10.62,4.4,-5.25,1.08,-10.03,0.82,0.03
1415.26,12.54,3.54,7.54,0.49,-9.78,0.97,-0.0
1415.39,7.78,3.1,10.19,-0.21,-9.59,1.1,-0.01
1415.53,2.44,3.47,10.07,-0.65,-9.56,1.15,-0.01
1415.67,-0.64,2.78,7.24,-0.84,-9.62,1.15,-0.01
1415.81,-1.21,1.69,2.39,-0.89,-9.68,1.14,-0.01
1415.94,-0.36,0.93,0.07,-0.87,-9.73,1.14,-0.01
1416.08,0.42,0.27,0.02,-0.83,-9.72,1.15,-0.01
1416.22,0.57,-0.39,0.9,-0.83,-9.69,1.18,-0.01
1416.36,0.4,-0.79,1.94,-0.86,-9.66,1.19,-0.01
1416.49,0.38,-0.87,1.76,-0.91,-9.67,1.17,-0.01
1416.63,1.03,-0.13,2.41,-0.86,-9.68,1.17,-0.01
1416.77,-0.42,2.29,2.61,-0.61,-9.66,1.13,-0.01
1416.91,-3.3,3.96,-3.92,-0.3,-9.59,1.0,-0.02
1417.04,-1.14,2.84,-10.5,-0.05,-9.67,0.92,-0.03
1417.18,4.34,2.12,-7.68,0.12,-9.83,0.95,-0.08
1417.32,8.33,3.27,-1.52,0.17,-9.84,1.07,-0.1
1417.46,11.43,4.0,2.03,0.13,-9.75,1.24,-0.12
1417.59,12.61,4.04,3.18,0.1,-9.69,1.45,-0.12
1417.73,9.76,4.41,1.59,0.08,-9.7,1.72,-0.13
1417.87,5.99,4.48,-1.47,0.12,-9.73,1.94,-0.12
1418.01,4.52,4.03,-3.8,0.24,-9.71,2.09,-0.13
1418.14,3.9,3.08,-4.02,0.37,-9.57,2.2,-0.13
1418.28,3.11,1.77,-3.14,0.48,-9.41,2.26,-0.12
1418.42,2.81,0.2,-0.78,0.52,-9.19,2.31,-0.13
1418.56,2.83,-1.16,4.62,0.47,-8.88,2.35,-0.1
1418.69,1.85,-0.42,10.22,0.42,-8.85,2.35,-0.05
1418.83,-0.21,1.01,12.69,0.31,-9.1,2.33,-0.02
1418.97,-1.72,0.58,10.88,0.12,-9.38,2.29,-0.01
1419.1,-2.0,-0.8,7.23,-0.03,-9.58,2.22,-0.01
1419.24,-1.28,-1.83,5.7,-0.16,-9.7,2.15,-0.01
1419.38,-0.13,-2.3,5.78,-0.31,-9.72,2.09,-0.01
1419.52,0.51,-2.19,4.73,-0.42,-9.67,2.05,-0.01
1419.65,0.62,-1.59,2.79,-0.47,-9.64,2.02,-0.01
1419.79,0.82,-0.95,2.11,-0.51,-9.63,2.01,-0.01
1419.93,1.1,-0.54,2.53,-0.57,-9.63,2.03,-0.01
1420.07,1.12,-0.47,2.48,-0.61,-9.65,2.06,-0.01
1420.2,0.91,-0.71,1.95,-0.65,-9.65,2.06,-0.01
1420.34,0.63,-0.94,1.17,-0.7,-9.62,2.04,-0.01
1420.48,0.54,-1.01,0.56,-0.73,-9.61,2.03,-0.01
1420.62,0.82,-0.76,0.91,-0.75,-9.61,2.02,-0.01
1420.75,1.1,-0.45,1.45,-0.78,-9.63,2.03,-0.01
1420.89,1.08,-0.48,1.47,-0.8,-9.63,2.04,-0.01
1421.03,0.89,-0.75,1.27,-0.83,-9.63,2.02,-0.01
1421.17,0.89,-1.09,1.11,-0.87,-9.61,2.0,-0.01
1421.3,0.99,-1.34,1.12,-0.9,-9.6,1.99,-0.01
1421.44,0.9,-1.85,0.33,-0.89,-9.58,2.0,-0.01
1421.58,0.51,-3.03,-1.23,-0.85,-9.56,2.0,-0.01
1421.72,-1.35,-4.83,-2.52,-0.75,-9.55,1.95,-0.01
1421.85,-7.31,-3.95,-5.54,-0.65,-9.71,1.98,-0.01
1421.99,-18.21,5.19,-10.71,-0.5,-10.03,1.96,-0.01
1422.13,-27.01,14.57,-13.12,-0.12,-10.05,1.31,-0.01
1422.27,-22.58,8.85,-12.64,0.34,-9.68,0.26,-0.01
1422.4,-5.36,-6.68,-11.48,0.55,-9.51,-0.22,-0.01
1422.54,9.5,-14.83,-7.11,0.5,-9.66,-0.02,-0.01
1422.68,13.21,-13.92,-1.31,0.41,-9.78,0.27,-0.01
1422.82,10.85,-10.89,1.97,0.32,-9.79,0.49,-0.01
1422.95,5.65,-7.82,1.67,0.25,-9.79,0.68,-0.01
1423.09,-0.21,-5.46,-0.77,0.26,-9.77,0.77,-0.01
1423.23,-1.96,-2.98,-1.95,0.36,-9.71,0.73,-0.01
1423.36,-0.35,-0.73,-2.8,0.47,-9.65,0.65,-0.01
1423.5,0.67,-0.15,-4.61,0.51,-9.65,0.65,-0.01
1423.64,0.48,-0.01,-4.46,0.54,-9.66,0.66,-0.01
1423.78,1.17,0.5,-0.94,0.62,-9.66,0.57,-0.01
1423.92,3.13,1.39,3.01,0.64,-9.62,0.5,-0.01
1424.05,4.3,1.45,4.19,0.58,-9.59,0.59,-0.01
1424.19,3.77,0.0,2.15,0.51,-9.59,0.71,-0.01
1424.33,3.0,-1.59,0.32,0.43,-9.6,0.77,-0.01
1424.46,2.79,-0.92,1.06,0.25,-9.64,0.86,-0.01
1424.6,3.96,3.61,1.54,0.11,-9.67,0.93,-0.01
1424.74,6.27,7.17,1.22,0.09,-9.71,1.01,-0.01
1424.88,2.6,4.92,-0.13,0.01,-9.75,1.17,-0.01
1425.01,-6.2,1.0,-3.14,-0.08,-9.78,1.27,-0.01
1425.15,-9.45,2.53,-4.33,-0.05,-9.8,1.2,-0.01
1425.29,-7.91,10.78,-3.46,0.04,-9.76,0.99,-0.01
1425.43,-9.5,19.93,-6.67,0.17,-9.75,0.73,-0.01
1425.56,-20.19,27.15,-17.18,0.36,-9.84,0.35,-0.01
1425.7,-32.4,32.16,-22.01,0.65,-9.95,-0.4,-0.01
1425.84,-27.38,29.85,-3.16,0.79,-9.77,-1.07,-0.01
1425.98,-3.78,27.95,31.24,0.64,-8.94,-1.2,-0.01
1426.11,25.49,32.2,49.69,0.58,-8.07,-0.68,-0.01
1426.25,49.48,30.89,36.5,0.8,-8.32,0.41,-0.01
1426.39,53.07,20.27,9.6,1.28,-9.21,1.43,-0.01
1426.53,36.8,5.29,-11.1,1.78,-9.87,2.1,-0.01
1426.66,22.76,-6.19,-21.51,2.13,-10.41,2.6,-0.01
1426.8,17.01,-13.17,-21.96,2.31,-10.42,2.75,-0.01
1426.94,11.37,-17.65,-15.7,2.38,-9.82,2.5,-0.01
1427.08,3.08,-16.95,-6.63,2.51,-9.43,2.12,-0.01
1427.21,-5.54,-14.4,1.55,2.62,-9.35,1.7,-0.01
1427.35,-11.12,-12.12,3.07,2.68,-9.26,1.25,-0.02
1427.49,-12.1,-7.82,-4.95,2.92,-9.16,1.0,-0.02
1427.63,-9.48,-3.46,-11.98,3.34,-9.08,0.87,-0.02
1427.76,-5.92,-2.39,-9.16,3.57,-9.02,0.61,-0.02
1427.9,-2.59,-2.84,-6.37,3.5,-9.01,0.27,-0.02
1428.04,0.06,-1.63,-10.17,3.39,-9.05,0.08,-0.02
1428.18,1.12,1.98,-13.08,3.44,-9.0,0.02,-0.02
1428.31,1.49,5.26,-7.44,3.61,-8.88,-0.02,-0.02
1428.45,2.68,6.92,-1.08,3.74,-8.84,-0.04,-0.02
1428.59,3.42,12.95,-2.8,3.82,-8.78,-0.04,-0.02
1428.73,1.82,21.88,-3.6,3.75,-8.68,0.09,-0.02
1428.86,-0.91,23.13,2.26,3.34,-8.84,0.37,-0.02
1429.0,-4.04,15.28,7.55,2.9,-9.15,0.58,-0.01
1429.14,-7.77,4.5,8.7,2.67,-9.32,0.63,-0.01
1429.28,-9.75,-0.17,4.49,2.62,-9.52,0.56,-0.01
1429.41,-8.58,2.36,-3.35,2.7,-9.64,0.36,-0.01
1429.55,-4.98,4.04,-8.97,2.88,-9.54,0.16,-0.02
1429.69,-1.27,3.09,-11.04,3.17,-9.35,0.07,-0.02
1429.82,0.91,0.84,-8.76,3.49,-9.18,0.07,-0.02
1429.96,2.06,-1.69,-3.63,3.69,-9.05,0.08,-0.02
1430.1,2.39,-1.91,-1.02,3.8,-9.0,0.05,-0.02
1430.24,1.32,1.39,-2.01,3.83,-9.01,0.05,-0.02
1430.38,-0.13,4.51,-4.81,3.86,-9.06,0.11,-0.02
1430.51,0.07,3.18,-8.8,4.01,-9.09,0.14,-0.02
1430.65,1.76,-1.96,-9.29,4.13,-9.02,0.12,-0.02
1430.79,3.92,-8.27,-3.54,4.13,-8.89,0.08,-0.02
1430.93,5.08,-13.05,3.87,4.14,-8.86,0.04,-0.02
1431.06,4.41,-14.49,10.19,4.15,-8.89,-0.01,-0.02
1431.2,2.58,-11.95,12.62,4.15,-8.91,-0.04,-0.02
1431.34,0.66,-6.4,8.08,4.13,-8.86,-0.06,-0.02
1431.47,-0.31,0.39,-2.72,4.12,-8.81,-0.09,-0.03
1431.61,-2.35,9.97,-24.86,4.45,-8.58,-0.0,-0.03
1431.75,-4.9,16.77,-43.07,5.18,-8.1,0.19,-0.03
1431.89,-3.52,11.7,-33.17,5.73,-7.74,0.29,-0.03
1432.02,-0.01,3.84,-15.15,5.89,-7.57,0.3,-0.03
1432.16,1.97,2.62,-9.21,6.02,-7.41,0.3,-0.03
1432.3,2.74,3.41,-8.33,6.1,-7.39,0.28,-0.03
1432.44,2.84,2.91,-7.3,6.09,-7.51,0.25,-0.03
1432.57,2.46,1.65,-5.15,6.08,-7.61,0.25,-0.03
1432.71,1.94,0.44,-2.79,6.09,-7.65,0.25,-0.03
1432.85,1.53,-0.29,-1.15,6.12,-7.64,0.25,-0.03
1432.98,1.35,-0.51,-0.48,6.14,-7.61,0.25,-0.03
1433.12,2.09,-0.24,-2.83,6.04,-7.64,0.34,-0.03
1433.26,9.89,1.96,2.95,5.97,-7.69,0.59,-0.03
1433.4,25.66,3.27,30.1,5.89,-7.96,0.99,-0.03
1433.54,26.97,-0.89,64.13,5.0,-8.62,1.36,-0.01
1433.67,6.31,-2.38,93.74,2.95,-9.01,1.44,-0.01
1433.81,-12.72,3.8,115.62,0.03,-8.71,1.27,-0.02
1433.95,-19.4,3.82,104.38,-3.07,-7.84,0.98,-0.02
1434.08,-16.47,-5.61,36.77,-5.07,-6.96,0.74,-0.02
1434.22,-4.03,-15.72,-61.43,-4.61,-7.39,0.97,-0.02
1434.36,7.53,-27.76,-133.14,-1.75,-8.84,1.53,-0.02
1434.5,5.99,-39.08,-147.76,1.83,-9.37,1.67,-0.02
1434.64,0.76,-40.13,-112.45,4.78,-8.82,1.3,-0.02
1434.77,2.97,-28.56,-55.62,6.51,-8.0,0.8,-0.02
1434.91,10.64,-12.32,-5.04,6.89,-7.59,0.58,-0.02
1435.05,15.87,-1.0,22.29,6.4,-7.81,0.69,-0.02
1435.19,10.75,1.34,25.0,5.78,-8.2,0.83,-0.02
1435.32,-0.95,-1.6,12.29,5.36,-8.54,0.77,-0.02
1435.46,-8.61,-2.13,-7.74,5.07,-8.7,0.55,-0.03
1435.6,-10.54,3.11,-27.8,5.08,-8.45,0.39,-0.03
1435.73,-11.02,9.43,-37.93,5.52,-7.87,0.36,-0.03
1435.87,-8.67,9.5,-30.62,6.07,-7.43,0.38,-0.03
1436.01,-3.71,5.26,-15.76,6.41,-7.31,0.36,-0.03
1436.15,-0.43,1.36,-3.43,6.52,-7.33,0.33,-0.03
1436.29,0.48,-1.14,4.37,6.51,-7.37,0.3,-0.03
1436.42,0.76,-1.8,5.71,6.44,-7.4,0.29,-0.03
1436.56,1.08,-1.44,3.42,6.37,-7.43,0.27,-0.03
1436.7,1.26,-0.97,1.08,6.33,-7.45,0.26,-0.03
1436.83,1.3,-0.66,-0.21,6.31,-7.47,0.24,-0.03
1436.97,1.27,-0.54,-0.58,6.31,-7.47,0.24,-0.03
1437.11,1.22,-0.54,-0.46,6.31,-7.46,0.24,-0.03
1437.25,1.15,-0.58,-0.2,6.31,-7.46,0.26,-0.03
1437.39,1.09,-0.61,0.02,6.31,-7.47,0.27,-0.03
1437.52,1.05,-0.59,0.18,6.3,-7.47,0.27,-0.03
1437.66,1.01,-0.57,0.28,6.3,-7.47,0.25,-0.03
1437.8,1.01,-0.6,0.33,6.31,-7.47,0.26,-0.03
1437.94,1.04,-0.63,0.37,6.31,-7.47,0.27,-0.03
1438.07,0.88,-0.95,0.93,6.35,-7.38,0.11,-0.03
1438.21,0.34,-1.27,1.39,6.51,-7.23,-0.26,-0.03
1438.35,0.12,-0.78,-0.13,6.66,-7.22,-0.39,-0.03
1438.48,0.53,0.05,-2.27,6.63,-7.32,-0.17,-0.04
1438.62,-0.24,3.51,-11.66,6.1,-7.51,-0.01,-0.04
1438.76,-1.82,8.59,-26.74,5.28,-7.73,0.09,-0.04
1438.9,-0.87,5.26,-15.26,5.18,-7.68,0.37,-0.03
1439.04,1.67,-3.89,18.03,5.64,-7.53,0.66,-0.03
1439.17,2.9,-7.41,33.05,5.83,-7.66,0.73,-0.03
1439.31,3.0,-6.01,28.4,5.75,-8.01,0.68,-0.03
1439.45,2.67,-3.52,17.18,5.56,-8.34,0.6,-0.03
1439.58,2.0,-1.5,6.4,5.38,-8.5,0.56,-0.03
1439.72,1.36,-0.98,1.66,5.29,-8.48,0.57,-0.03
1439.86,1.25,-0.77,0.21,5.27,-8.41,0.6,-0.03
1440.0,1.42,-0.49,-0.15,5.27,-8.34,0.61,-0.03
1440.13,0.95,-0.52,0.01,5.27,-8.3,0.62,-0.03
1440.27,-0.26,-0.13,-3.15,5.3,-8.3,0.63,-0.03
1440.41,-1.5,0.55,-9.49,5.41,-8.27,0.59,-0.03
1440.55,-1.77,0.91,-17.02,5.63,-8.13,0.48,-0.03
1440.68,-0.98,0.69,-21.32,5.92,-7.89,0.38,-0.03
1440.82,-0.24,-0.59,-14.56,6.23,-7.6,0.34,-0.03
1440.96,0.14,-1.79,-3.29,6.46,-7.35,0.36,-0.03
1441.1,0.22,-2.18,3.97,6.55,-7.22,0.38,-0.03
1441.23,-0.02,-2.31,7.64,6.54,-7.2,0.4,-0.03
1441.37,-0.1,-2.04,7.58,6.51,-7.24,0.42,-0.03
1441.51,0.06,-1.55,5.42,6.47,-7.29,0.41,-0.03
1441.65,0.11,-1.25,3.71,6.41,-7.36,0.37,-0.03
1441.78,0.29,-1.06,2.38,6.38,-7.41,0.32,-0.03
1441.92,0.67,-0.89,1.16,6.36,-7.45,0.29,-0.03
1442.06,0.97,-0.77,0.45,6.36,-7.47,0.28,-0.03
1442.2,1.1,-0.69,0.13,6.36,-7.47,0.28,-0.03
1442.33,1.1,-0.65,0.08,6.36,-7.45,0.28,-0.03
1442.47,1.05,-0.68,0.15,6.36,-7.43,0.28,-0.03
1442.61,1.01,-0.73,0.28,6.34,-7.43,0.27,-0.03
1442.74,1.03,-0.76,0.37,6.34,-7.42,0.24,-0.03
1442.88,1.05,-0.72,0.39,6.35,-7.42,0.24,-0.03
1443.02,1.06,-0.65,0.38,6.37,-7.41,0.25,-0.03
1443.16,1.04,-0.61,0.39,6.38,-7.41,0.28,-0.03
1443.29,1.05,-0.6,0.45,6.38,-7.4,0.29,-0.03
1443.43,1.07,-0.61,0.52,6.37,-7.41,0.27,-0.03
1443.57,1.09,-0.62,0.54,6.37,-7.42,0.26,-0.03
1443.71,1.1,-0.62,0.49,6.35,-7.43,0.25,-0.03
1443.84,1.11,-0.6,0.45,6.35,-7.43,0.27,-0.03
1443.98,1.12,-0.6,0.46,6.35,-7.42,0.29,-0.03
1444.12,1.11,-0.64,0.49,6.35,-7.43,0.31,-0.03
1444.26,1.11,-0.69,0.49,6.35,-7.44,0.31,-0.03
1444.39,1.09,-0.74,0.45,6.34,-7.46,0.31,-0.03
1444.53,1.08,-0.74,0.44,6.33,-7.47,0.3,-0.03
1444.67,1.1,-0.71,0.42,6.32,-7.48,0.31,-0.03
1444.81,1.09,-0.65,0.35,6.33,-7.49,0.33,-0.03
1444.94,1.07,-0.61,0.25,6.34,-7.48,0.32,-0.03
1445.08,1.08,-0.59,0.23,6.35,-7.47,0.29,-0.03
1445.22,1.08,-0.59,0.3,6.36,-7.46,0.27,-0.03
1445.35,1.06,-0.59,0.38,6.36,-7.45,0.27,-0.03
1445.49,1.07,-0.59,0.46,6.36,-7.45,0.27,-0.03
1445.63,1.11,-0.6,0.56,6.36,-7.45,0.28,-0.03
1445.77,1.14,-0.64,0.61,6.35,-7.44,0.3,-0.03
1445.91,1.12,-0.68,0.61,6.35,-7.44,0.31,-0.03
1446.04,1.09,-0.7,0.54,6.35,-7.45,0.31,-0.03
1446.18,1.08,-0.72,0.47,6.34,-7.45,0.31,-0.03
1446.32,1.09,-0.74,0.4,6.34,-7.43,0.31,-0.03
1446.45,1.08,-0.73,0.38,6.34,-7.42,0.3,-0.03
1446.59,1.06,-0.72,0.41,6.35,-7.43,0.3,-0.03
1446.73,1.06,-0.72,0.45,6.35,-7.45,0.3,-0.03
1446.87,1.05,-0.68,0.46,6.34,-7.45,0.29,-0.03
1447.0,1.04,-0.64,0.43,6.32,-7.44,0.27,-0.03
1447.14,1.02,-0.65,0.39,6.32,-7.43,0.27,-0.03
1447.28,1.03,-0.69,0.37,6.33,-7.41,0.27,-0.03
1447.42,1.08,-0.7,0.38,6.34,-7.41,0.29,-0.03
1447.55,1.11,-0.69,0.39,6.34,-7.42,0.31,-0.03
1447.69,1.08,-0.67,0.39,6.35,-7.44,0.32,-0.03
1447.83,1.05,-0.64,0.41,6.37,-7.46,0.32,-0.03
1447.97,1.07,-0.61,0.45,6.38,-7.47,0.33,-0.03
1448.1,1.07,-0.62,0.47,6.37,-7.47,0.34,-0.03
1448.24,1.03,-0.66,0.43,6.36,-7.45,0.34,-0.03
1448.38,0.99,-0.68,0.39,6.36,-7.45,0.32,-0.03
1448.52,1.02,-0.71,0.41,6.35,-7.44,0.31,-0.03
1448.65,1.08,-0.79,0.45,6.35,-7.44,0.29,-0.03
1448.79,1.12,-0.85,0.46,6.36,-7.44,0.29,-0.03
1448.93,1.14,-0.84,0.44,6.37,-7.45,0.28,-0.03
1449.07,1.1,-0.77,0.4,6.37,-7.47,0.27,-0.03
1449.2,1.05,-0.71,0.37,6.35,-7.47,0.27,-0.03
1449.34,1.0,-0.7,0.37,6.35,-7.46,0.27,-0.03
1449.48,1.0,-0.7,0.37,6.35,-7.45,0.28,-0.03
1449.62,1.05,-0.66,0.37,6.35,-7.44,0.27,-0.03
1449.75,1.1,-0.65,0.35,6.34,-7.44,0.26,-0.03
1449.89,1.11,-0.65,0.35,6.33,-7.43,0.25,-0.03
1450.03,1.07,-0.65,0.38,6.33,-7.45,0.25,-0.03
1450.17,1.0,-0.66,0.4,6.33,-7.46,0.24,-0.03
1450.3,0.99,-0.68,0.4,6.34,-7.45,0.25,-0.03
1450.44,1.04,-0.69,0.43,6.35,-7.44,0.28,-0.03
1450.58,1.08,-0.69,0.47,6.36,-7.45,0.3,-0.03
1450.71,1.09,-0.68,0.49,6.36,-7.46,0.32,-0.03
1450.85,1.11,-0.66,0.44,6.35,-7.47,0.33,-0.03
1450.99,1.14,-0.62,0.4,6.33,-7.47,0.34,-0.03
1451.13,1.12,-0.59,0.38,6.33,-7.46,0.33,-0.03
1451.26,1.08,-0.58,0.37,6.33,-7.46,0.31,-0.03
1451.4,1.05,-0.59,0.4,6.34,-7.46,0.3,-0.03
1451.54,1.05,-0.61,0.42,6.36,-7.45,0.29,-0.03
1451.68,1.03,-0.65,0.4,6.35,-7.44,0.29,-0.03
1451.81,1.01,-0.69,0.35,6.34,-7.45,0.28,-0.03
1451.95,1.0,-0.68,0.33,6.34,-7.45,0.26,-0.03
1452.09,1.0,-0.64,0.36,6.35,-7.45,0.26,-0.03
1452.23,1.03,-0.63,0.38,6.34,-7.45,0.27,-0.03
1452.36,1.06,-0.65,0.41,6.34,-7.46,0.28,-0.03
1452.5,1.07,-0.67,0.44,6.35,-7.46,0.28,-0.03
1452.64,1.07,-0.71,0.48,6.36,-7.45,0.28,-0.03
1452.78,1.06,-0.73,0.49,6.36,-7.43,0.28,-0.03
1452.91,1.07,-0.68,0.47,6.35,-7.43,0.28,-0.03
1453.05,1.06,-0.63,0.42,6.35,-7.43,0.29,-0.03
1453.19,1.05,-0.62,0.38,6.35,-7.43,0.3,-0.03
1453.32,1.03,-0.65,0.34,6.34,-7.43,0.3,-0.03
1453.46,1.01,-0.67,0.33,6.33,-7.44,0.29,-0.03
1453.6,1.02,-0.66,0.34,6.33,-7.44,0.27,-0.03
1453.74,1.04,-0.62,0.39,6.33,-7.43,0.26,-0.03
1453.87,1.04,-0.6,0.45,6.33,-7.41,0.25,-0.03
1454.01,1.04,-0.63,0.47,6.33,-7.39,0.26,-0.03
1454.15,1.03,-0.69,0.45,6.34,-7.4,0.28,-0.03
1454.29,1.01,-0.73,0.41,6.34,-7.42,0.29,-0.03
1454.42,0.99,-0.73,0.39,6.34,-7.44,0.3,-0.03
1454.56,1.0,-0.7,0.38,6.33,-7.44,0.31,-0.03
1454.7,1.03,-0.66,0.38,6.33,-7.44,0.32,-0.03
1454.84,1.07,-0.66,0.42,6.34,-7.45,0.31,-0.03
1454.97,1.11,-0.66,0.48,6.34,-7.45,0.32,-0.03
1455.11,1.13,-0.63,0.55,6.34,-7.45,0.32,-0.03
1455.25,1.12,-0.64,0.54,6.33,-7.45,0.32,-0.03
1455.39,1.12,-0.69,0.46,6.33,-7.45,0.31,-0.03
1455.52,1.09,-0.69,0.38,6.34,-7.44,0.32,-0.03
1455.66,1.04,-0.64,0.32,6.35,-7.44,0.32,-0.03
1455.8,1.0,-0.63,0.32,6.35,-7.46,0.3,-0.03
1455.94,0.99,-0.65,0.39,6.34,-7.46,0.29,-0.03
1456.07,1.02,-0.68,0.48,6.33,-7.44,0.3,-0.03
1456.21,1.04,-0.72,0.54,6.33,-7.43,0.32,-0.03
1456.35,1.02,-0.76,0.54,6.34,-7.42,0.34,-0.03
1456.48,0.98,-0.75,0.47,6.35,-7.45,0.36,-0.03
1456.62,0.96,-0.69,0.35,6.35,-7.48,0.35,-0.03
1456.76,0.94,-0.6,0.29,6.35,-7.49,0.34,-0.03
1456.9,0.96,-0.52,0.33,6.35,-7.48,0.31,-0.03
1457.03,1.03,-0.51,0.42,6.36,-7.47,0.3,-0.03
1457.17,1.07,-0.6,0.47,6.35,-7.47,0.29,-0.03
1457.31,1.07,-0.73,0.47,6.35,-7.46,0.3,-0.03
1457.45,1.08,-0.77,0.4,6.35,-7.47,0.3,-0.03
1457.58,1.11,-0.72,0.34,6.35,-7.46,0.3,-0.03
1457.72,1.11,-0.67,0.36,6.34,-7.45,0.3,-0.03
1457.86,1.11,-0.64,0.37,6.33,-7.44,0.3,-0.03
1458.0,1.11,-0.6,0.34,6.33,-7.43,0.31,-0.03
1458.13,1.1,-0.53,0.34,6.34,-7.44,0.3,-0.03
1458.27,1.11,-0.51,0.39,6.35,-7.47,0.28,-0.03
1458.41,1.12,-0.55,0.45,6.35,-7.48,0.28,-0.03
1458.55,1.09,-0.59,0.47,6.34,-7.47,0.29,-0.03
1458.68,1.07,-0.62,0.48,6.35,-7.46,0.3,-0.03
1458.82,1.05,-0.67,0.52,6.37,-7.46,0.31,-0.03
1458.96,1.04,-0.68,0.55,6.38,-7.45,0.31,-0.03
1459.09,1.03,-0.68,0.54,6.37,-7.44,0.3,-0.03
1459.23,1.03,-0.71,0.49,6.35,-7.44,0.3,-0.03
1459.37,1.03,-0.71,0.46,6.34,-7.44,0.3,-0.03
1459.51,1.03,-0.68,0.44,6.33,-7.45,0.31,-0.03
1459.64,1.07,-0.66,0.39,6.33,-7.47,0.31,-0.03
1459.78,1.09,-0.69,0.36,6.33,-7.47,0.28,-0.03
1459.92,1.08,-0.72,0.35,6.34,-7.47,0.25,-0.03
1460.06,1.07,-0.69,0.35,6.35,-7.46,0.25,-0.03
1460.19,1.07,-0.64,0.34,6.36,-7.45,0.28,-0.03
1460.33,1.11,-0.63,0.34,6.36,-7.43,0.32,-0.03
1460.47,1.14,-0.64,0.34,6.35,-7.42,0.33,-0.03
1460.6,1.14,-0.67,0.32,6.34,-7.43,0.32,-0.03
1460.74,1.13,-0.72,0.3,6.34,-7.46,0.32,-0.03
1460.88,1.12,-0.74,0.32,6.35,-7.48,0.3,-0.03
1461.02,1.11,-0.72,0.38,6.35,-7.47,0.28,-0.03
1461.16,1.1,-0.71,0.43,6.35,-7.46,0.27,-0.03
1461.29,1.08,-0.72,0.44,6.34,-7.45,0.27,-0.03
1461.43,1.03,-0.72,0.41,6.34,-7.46,0.27,-0.03
1461.57,1.0,-0.7,0.39,6.34,-7.48,0.28,-0.03
1461.7,1.01,-0.67,0.38,6.33,-7.47,0.27,-0.03
1461.84,1.01,-0.66,0.38,6.32,-7.45,0.27,-0.03
1461.98,0.98,-0.69,0.38,6.3,-7.43,0.28,-0.03
1462.12,0.95,-0.73,0.38,6.3,-7.43,0.3,-0.03
1462.25,0.95,-0.74,0.39,6.33,-7.44,0.32,-0.03
1462.39,0.97,-0.72,0.39,6.36,-7.44,0.32,-0.03
1462.53,1.01,-0.69,0.39,6.37,-7.43,0.32,-0.03
1462.67,1.04,-0.67,0.41,6.36,-7.42,0.32,-0.03
1462.8,1.04,-0.68,0.46,6.35,-7.42,0.31,-0.03
1462.94,1.03,-0.7,0.43,6.35,-7.44,0.32,-0.03
1463.08,1.02,-0.73,0.33,6.35,-7.45,0.33,-0.03
1463.21,1.05,-0.77,0.28,6.34,-7.45,0.33,-0.03
1463.35,1.11,-0.8,0.32,6.34,-7.45,0.32,-0.03
1463.49,1.15,-0.81,0.43,6.34,-7.45,0.29,-0.03
1463.63,1.15,-0.81,0.51,6.34,-7.44,0.28,-0.03
1463.76,1.11,-0.81,0.53,6.34,-7.44,0.28,-0.03
1463.9,1.08,-0.75,0.52,6.35,-7.46,0.27,-0.03
1464.04,1.08,-0.65,0.5,6.35,-7.47,0.27,-0.03
1464.18,1.06,-0.63,0.47,6.35,-7.46,0.28,-0.03
1464.31,1.0,-0.69,0.46,6.35,-7.45,0.27,-0.03
1464.45,0.97,-0.75,0.47,6.35,-7.43,0.26,-0.03
1464.59,1.0,-0.77,0.46,6.34,-7.43,0.26,-0.03
1464.73,1.04,-0.75,0.42,6.33,-7.43,0.26,-0.03
1464.86,1.07,-0.71,0.41,6.33,-7.45,0.25,-0.03
1465.0,1.11,-0.67,0.42,6.33,-7.47,0.26,-0.03
1465.14,1.11,-0.66,0.42,6.33,-7.46,0.26,-0.03
1465.28,1.12,-0.64,0.42,6.32,-7.45,0.27,-0.03
1465.41,1.15,-0.62,0.44,6.32,-7.44,0.27,-0.03
1465.55,1.15,-0.61,0.46,6.33,-7.44,0.27,-0.03
1465.69,1.12,-0.61,0.43,6.33,-7.43,0.28,-0.03
1465.83,1.08,-0.63,0.4,6.33,-7.42,0.29,-0.03
1465.96,1.06,-0.63,0.42,6.34,-7.42,0.3,-0.03
1466.1,1.05,-0.61,0.44,6.34,-7.44,0.31,-0.03
1466.24,1.05,-0.59,0.43,6.34,-7.46,0.3,-0.03
1466.38,1.04,-0.6,0.41,6.34,-7.46,0.29,-0.03
1466.51,1.06,-0.63,0.38,6.35,-7.45,0.28,-0.03
1466.65,1.12,-0.68,0.37,6.34,-7.44,0.28,-0.03
1466.79,1.14,-0.71,0.35,6.35,-7.43,0.3,-0.03
1466.93,1.1,-0.72,0.32,6.36,-7.43,0.31,-0.03
1467.06,1.04,-0.73,0.33,6.36,-7.43,0.31,-0.03
1467.2,1.02,-0.7,0.37,6.36,-7.43,0.31,-0.03
1467.34,1.06,-0.65,0.39,6.35,-7.44,0.3,-0.03
1467.47,1.09,-0.6,0.38,6.34,-7.45,0.29,-0.03
1467.61,1.09,-0.58,0.35,6.33,-7.45,0.28,-0.03
1467.75,1.06,-0.6,0.34,6.33,-7.44,0.29,-0.03
1467.89,1.03,-0.67,0.37,6.35,-7.43,0.3,-0.03
1468.03,1.03,-0.73,0.41,6.38,-7.41,0.32,-0.03
1468.16,1.05,-0.72,0.45,6.39,-7.39,0.34,-0.03
1468.3,1.06,-0.67,0.47,6.39,-7.39,0.35,-0.03
1468.44,1.04,-0.61,0.48,6.37,-7.41,0.33,-0.03
1468.57,0.99,-0.6,0.5,6.35,-7.43,0.3,-0.03
1468.71,0.97,-0.65,0.56,6.34,-7.45,0.28,-0.03
1468.85,1.01,-0.7,0.48,6.36,-7.46,0.25,-0.03
1468.99,1.07,-0.72,0.35,6.38,-7.48,0.26,-0.03
1469.12,1.07,-0.72,0.37,6.4,-7.5,0.29,-0.03
1469.26,1.04,-0.69,0.44,6.42,-7.48,0.32,-0.03
1469.4,1.01,-0.66,0.4,6.41,-7.47,0.34,-0.03
1469.54,0.99,-0.63,0.35,6.37,-7.47,0.33,-0.03
1469.67,0.99,-0.6,0.34,6.35,-7.49,0.32,-0.03
1469.81,1.01,-0.57,0.34,6.35,-7.5,0.3,-0.03
1469.95,1.0,-0.57,0.35,6.36,-7.48,0.29,-0.03
1470.08,0.99,-0.61,0.4,6.34,-7.46,0.28,-0.03
1470.22,0.99,-0.65,0.45,6.34,-7.46,0.29,-0.03
1470.36,1.02,-0.65,0.46,6.35,-7.46,0.31,-0.03
1470.5,1.05,-0.64,0.44,6.36,-7.46,0.31,-0.03
1470.64,1.09,-0.65,0.44,6.35,-7.45,0.29,-0.03
1470.77,1.12,-0.64,0.45,6.34,-7.44,0.27,-0.03
1470.91,1.13,-0.62,0.41,6.33,-7.45,0.26,-0.03
1471.05,1.11,-0.63,0.33,6.32,-7.47,0.27,-0.03
1471.19,1.05,-0.65,0.26,6.32,-7.48,0.26,-0.03
1471.32,1.0,-0.67,0.25,6.32,-7.49,0.27,-0.03
1471.46,0.98,-0.68,0.31,6.32,-7.49,0.3,-0.03
1471.6,0.97,-0.65,0.36,6.33,-7.47,0.32,-0.03
1471.73,0.99,-0.65,0.35,6.34,-7.44,0.31,-0.03
1471.87,1.04,-0.7,0.31,6.34,-7.42,0.3,-0.03
1472.01,1.09,-0.73,0.31,6.36,-7.42,0.3,-0.03
1472.15,1.1,-0.72,0.31,6.37,-7.43,0.31,-0.03
1472.28,1.11,-0.71,0.31,6.37,-7.43,0.3,-0.03
1472.42,1.12,-0.7,0.31,6.37,-7.43,0.29,-0.03
1472.56,1.12,-0.69,0.28,6.36,-7.44,0.29,-0.03
1472.7,1.12,-0.71,0.26,6.36,-7.45,0.31,-0.03
1472.83,1.1,-0.72,0.3,6.34,-7.42,0.32,-0.03
1472.97,1.08,-0.69,0.35,6.34,-7.37,0.32,-0.03
1473.11,1.06,-0.65,0.36,6.34,-7.34,0.32,-0.03
1473.25,1.04,-0.64,0.38,6.34,-7.37,0.32,-0.03
1473.38,1.02,-0.6,0.4,6.36,-7.41,0.31,-0.03
1473.52,1.0,-0.56,0.36,6.36,-7.44,0.31,-0.03
1473.66,1.03,-0.56,0.28,6.35,-7.45,0.29,-0.03
1473.8,1.07,-0.6,0.26,6.34,-7.45,0.28,-0.03
1473.93,1.08,-0.62,0.3,6.34,-7.46,0.28,-0.03
1474.07,1.06,-0.64,0.36,6.34,-7.47,0.28,-0.03
1474.21,1.07,-0.67,0.39,6.36,-7.47,0.29,-0.03
1474.34,1.09,-0.69,0.39,6.37,-7.47,0.29,-0.03
1474.48,1.08,-0.69,0.38,6.37,-7.45,0.3,-0.03
1474.62,1.03,-0.64,0.41,6.36,-7.43,0.31,-0.03
1474.76,1.01,-0.61,0.45,6.36,-7.42,0.31,-0.03
1474.9,1.06,-0.6,0.45,6.36,-7.42,0.31,-0.03
1475.03,1.12,-0.59,0.41,6.36,-7.42,0.32,-0.03
1475.17,1.15,-0.58,0.38,6.35,-7.42,0.33,-0.03
1475.31,1.14,-0.61,0.37,6.35,-7.44,0.31,-0.03
1475.44,1.11,-0.65,0.36,6.34,-7.45,0.3,-0.03
1475.58,1.08,-0.63,0.32,6.33,-7.45,0.29,-0.03
1475.72,1.08,-0.57,0.26,6.32,-7.46,0.29,-0.03
1475.86,1.07,-0.55,0.3,6.33,-7.46,0.28,-0.03
1475.99,1.05,-0.6,0.4,6.35,-7.46,0.29,-0.03
1476.13,1.03,-0.65,0.45,6.36,-7.45,0.31,-0.03
1476.27,1.02,-0.67,0.43,6.36,-7.45,0.31,-0.03
1476.41,1.0,-0.66,0.4,6.36,-7.45,0.3,-0.03
1476.54,0.96,-0.66,0.39,6.36,-7.46,0.28,-0.03
1476.68,0.94,-0.68,0.43,6.35,-7.45,0.28,-0.03
1476.82,0.95,-0.69,0.46,6.35,-7.45,0.29,-0.03
1476.96,1.0,-0.66,0.49,6.34,-7.44,0.3,-0.03
1477.09,1.08,-0.61,0.48,6.35,-7.42,0.31,-0.03
1477.23,1.12,-0.58,0.46,6.37,-7.42,0.32,-0.03
1477.37,1.1,-0.57,0.43,6.4,-7.42,0.34,-0.03
1477.51,1.06,-0.57,0.39,6.39,-7.42,0.34,-0.03
1477.64,1.06,-0.61,0.38,6.38,-7.43,0.33,-0.03
1477.78,1.05,-0.69,0.39,6.35,-7.43,0.3,-0.03
1477.92,1.03,-0.73,0.43,6.33,-7.44,0.29,-0.03
1478.06,1.0,-0.71,0.45,6.33,-7.44,0.28,-0.03
1478.19,0.98,-0.68,0.44,6.32,-7.45,0.26,-0.03
1478.33,0.99,-0.67,0.44,6.32,-7.46,0.25,-0.03
1478.47,1.01,-0.7,0.44,6.32,-7.46,0.27,-0.03
1478.6,1.05,-0.75,0.44,6.32,-7.46,0.27,-0.03
1478.74,1.1,-0.75,0.43,6.33,-7.44,0.26,-0.03
1478.88,1.13,-0.71,0.4,6.35,-7.44,0.25,-0.03
1479.02,1.14,-0.65,0.38,6.36,-7.45,0.25,-0.03
1479.15,1.14,-0.59,0.39,6.37,-7.46,0.26,-0.03
1479.29,1.12,-0.57,0.4,6.37,-7.45,0.27,-0.03
1479.43,1.09,-0.61,0.4,6.37,-7.44,0.28,-0.03
1479.57,1.05,-0.65,0.37,6.36,-7.43,0.28,-0.03
1479.7,1.03,-0.64,0.33,6.35,-7.42,0.28,-0.03
1479.84,1.03,-0.62,0.32,6.36,-7.41,0.28,-0.03
1479.98,1.04,-0.6,0.34,6.35,-7.43,0.29,-0.03
1480.12,1.07,-0.59,0.37,6.35,-7.45,0.28,-0.03
1480.25,1.08,-0.58,0.37,6.35,-7.47,0.29,-0.03
1480.39,1.07,-0.59,0.35,6.35,-7.46,0.28,-0.03
1480.53,1.06,-0.62,0.33,6.37,-7.44,0.28,-0.03
1480.67,1.04,-0.68,0.31,6.39,-7.43,0.28,-0.03
1480.8,1.04,-0.72,0.32,6.39,-7.44,0.29,-0.03
1480.94,1.06,-0.71,0.32,6.37,-7.44,0.31,-0.03
1481.08,1.07,-0.7,0.32,6.36,-7.44,0.3,-0.03
1481.21,1.05,-0.69,0.33,6.35,-7.45,0.26,-0.03
1481.35,1.03,-0.66,0.34,6.36,-7.46,0.25,-0.03
1481.49,1.0,-0.63,0.34,6.36,-7.45,0.26,-0.03
1481.63,0.97,-0.62,0.36,6.36,-7.43,0.27,-0.03
1481.77,0.98,-0.64,0.41,6.35,-7.41,0.28,-0.03
1481.9,1.02,-0.66,0.46,6.34,-7.4,0.29,-0.03
1482.04,1.05,-0.67,0.5,6.33,-7.41,0.28,-0.03
1482.18,1.04,-0.66,0.48,6.32,-7.42,0.27,-0.03
1482.31,1.01,-0.65,0.41,6.31,-7.42,0.28,-0.03
1482.45,1.02,-0.62,0.38,6.31,-7.42,0.29,-0.03
1482.59,1.05,-0.59,0.42,6.32,-7.42,0.3,-0.03
1482.73,1.07,-0.6,0.44,6.33,-7.42,0.3,-0.03
1482.86,1.04,-0.64,0.41,6.35,-7.42,0.3,-0.03
1483.0,0.99,-0.65,0.38,6.36,-7.43,0.3,-0.03
1483.14,0.99,-0.66,0.37,6.35,-7.43,0.3,-0.03
1483.28,1.03,-0.68,0.35,6.33,-7.43,0.28,-0.03
1483.42,1.06,-0.66,0.32,6.34,-7.41,0.27,-0.03
1483.55,1.06,-0.61,0.31,6.35,-7.41,0.26,-0.03
1483.69,1.05,-0.59,0.34,6.35,-7.42,0.26,-0.03
1483.83,1.03,-0.61,0.36,6.32,-7.43,0.28,-0.03
1483.96,1.0,-0.64,0.35,6.31,-7.43,0.28,-0.03
1484.1,0.99,-0.68,0.37,6.31,-7.44,0.27,-0.03
1484.24,1.0,-0.73,0.42,6.31,-7.45,0.27,-0.03
1484.38,1.02,-0.74,0.45,6.33,-7.44,0.28,-0.03
1484.51,1.03,-0.71,0.45,6.36,-7.43,0.29,-0.03
1484.65,1.03,-0.69,0.44,6.36,-7.43,0.29,-0.03
1484.79,1.05,-0.66,0.44,6.36,-7.43,0.29,-0.03
1484.93,1.09,-0.64,0.44,6.35,-7.42,0.27,-0.03
1485.06,1.1,-0.66,0.42,6.36,-7.42,0.26,-0.03
1485.2,1.06,-0.69,0.38,6.36,-7.43,0.26,-0.03
1485.34,1.03,-0.68,0.36,6.36,-7.43,0.27,-0.03
1485.48,1.04,-0.66,0.35,6.37,-7.42,0.3,-0.03
1485.61,1.09,-0.66,0.33,6.36,-7.43,0.33,-0.03
1485.75,1.12,-0.67,0.33,6.34,-7.44,0.34,-0.03
1485.89,1.12,-0.66,0.37,6.33,-7.45,0.33,-0.03
1486.03,1.09,-0.67,0.42,6.32,-7.45,0.32,-0.03
1486.16,1.05,-0.7,0.42,6.33,-7.44,0.29,-0.03
1486.3,1.02,-0.71,0.38,6.34,-7.44,0.27,-0.03
1486.44,1.0,-0.7,0.36,6.33,-7.43,0.27,-0.03
1486.57,1.0,-0.68,0.38,6.33,-7.44,0.29,-0.03
1486.71,1.03,-0.66,0.43,6.32,-7.45,0.3,-0.03
1486.85,1.04,-0.68,0.46,6.31,-7.46,0.32,-0.03
1486.99,1.02,-0.71,0.48,6.32,-7.46,0.32,-0.03
1487.13,0.98,-0.71,0.48,6.34,-7.46,0.3,-0.03
1487.26,1.0,-0.68,0.47,6.35,-7.46,0.29,-0.03
1487.4,1.05,-0.68,0.45,6.34,-7.45,0.27,-0.03
1487.54,1.05,-0.69,0.43,6.34,-7.43,0.26,-0.03
1487.68,0.99,-0.69,0.44,6.35,-7.41,0.25,-0.03
1487.81,0.92,-0.68,0.45,6.36,-7.42,0.24,-0.03
1487.95,0.91,-0.67,0.42,6.37,-7.43,0.25,-0.03
1488.09,0.94,-0.63,0.4,6.36,-7.44,0.28,-0.03
1488.22,0.98,-0.61,0.39,6.36,-7.43,0.31,-0.03
1488.36,1.01,-0.64,0.39,6.37,-7.43,0.33,-0.03
1488.5,1.04,-0.68,0.4,6.38,-7.43,0.33,-0.03
1488.64,1.07,-0.69,0.42,6.39,-7.44,0.31,-0.03
1488.78,1.09,-0.69,0.45,6.37,-7.45,0.3,-0.03
1488.91,1.13,-0.65,0.49,6.36,-7.46,0.29,-0.03
1489.05,1.16,-0.6,0.45,6.36,-7.46,0.28,-0.03
1489.19,1.14,-0.6,0.37,6.37,-7.47,0.28,-0.03
1489.32,1.1,-0.64,0.3,6.38,-7.47,0.28,-0.03
1489.46,1.08,-0.66,0.28,6.38,-7.47,0.29,-0.03
1489.6,1.04,-0.66,0.32,6.36,-7.47,0.3,-0.03
1489.74,1.01,-0.67,0.37,6.34,-7.46,0.3,-0.03
1489.87,1.04,-0.66,0.4,6.33,-7.45,0.29,-0.03
1490.01,1.06,-0.65,0.41,6.32,-7.45,0.28,-0.03
1490.15,1.07,-0.69,0.42,6.33,-7.43,0.28,-0.03
1490.29,1.11,-0.75,0.45,6.34,-7.42,0.3,-0.03
1490.42,1.13,-0.79,0.48,6.33,-7.43,0.31,-0.03
1490.56,1.12,-0.78,0.47,6.33,-7.44,0.29,-0.03
1490.7,1.1,-0.77,0.43,6.34,-7.44,0.27,-0.03
1490.84,1.09,-0.75,0.43,6.36,-7.44,0.27,-0.03
1490.97,1.07,-0.71,0.47,6.37,-7.43,0.29,-0.03
1491.11,1.06,-0.67,0.47,6.37,-7.43,0.32,-0.03
1491.25,1.06,-0.65,0.44,6.35,-7.42,0.34,-0.03
1491.39,1.04,-0.65,0.44,6.33,-7.43,0.35,-0.03
1491.52,1.02,-0.67,0.45,6.33,-7.43,0.35,-0.03
1491.66,1.04,-0.67,0.44,6.34,-7.43,0.32,-0.03
1491.8,1.06,-0.67,0.39,6.34,-7.44,0.29,-0.03
1491.94,1.06,-0.65,0.32,6.33,-7.45,0.27,-0.03
1492.07,1.03,-0.62,0.29,6.32,-7.44,0.27,-0.03
1492.21,0.99,-0.64,0.33,6.31,-7.46,0.28,-0.03
1492.35,0.97,-0.69,0.39,6.3,-7.5,0.27,-0.03
1492.49,0.96,-0.72,0.41,6.3,-7.5,0.27,-0.03
1492.62,0.93,-0.7,0.41,6.33,-7.47,0.28,-0.03
1492.76,0.91,-0.67,0.41,6.35,-7.47,0.29,-0.03
1492.9,0.94,-0.67,0.42,6.36,-7.47,0.29,-0.03
1493.04,1.0,-0.68,0.46,6.35,-7.46,0.29,-0.03
1493.17,1.05,-0.69,0.44,6.33,-7.45,0.29,-0.03
1493.31,1.1,-0.7,0.39,6.31,-7.45,0.28,-0.03
1493.45,1.11,-0.72,0.33,6.32,-7.44,0.26,-0.03
1493.59,1.07,-0.7,0.31,6.33,-7.44,0.25,-0.03
1493.72,1.04,-0.67,0.33,6.32,-7.45,0.26,-0.03
1493.86,1.02,-0.65,0.36,6.31,-7.46,0.27,-0.03
1494.0,1.02,-0.65,0.36,6.33,-7.46,0.28,-0.03
1494.14,1.0,-0.65,0.37,6.35,-7.46,0.28,-0.03
1494.27,0.97,-0.63,0.39,6.35,-7.46,0.26,-0.03
1494.41,0.96,-0.64,0.45,6.34,-7.44,0.26,-0.03
1494.55,0.96,-0.7,0.49,6.34,-7.43,0.26,-0.03
1494.69,0.96,-0.74,0.5,6.35,-7.43,0.26,-0.03
1494.82,0.99,-0.74,0.51,6.36,-7.45,0.28,-0.03
1494.96,1.02,-0.71,0.49,6.35,-7.47,0.31,-0.03
1495.1,1.05,-0.66,0.44,6.35,-7.48,0.32,-0.03
1495.23,1.05,-0.64,0.38,6.35,-7.46,0.3,-0.03
1495.37,1.04,-0.6,0.34,6.36,-7.44,0.28,-0.03
1495.51,1.05,-0.55,0.3,6.37,-7.43,0.25,-0.03
1495.65,1.09,-0.56,0.25,6.38,-7.42,0.24,-0.03
1495.79,1.13,-0.61,0.25,6.38,-7.42,0.25,-0.03
1495.92,1.12,-0.65,0.31,6.38,-7.41,0.25,-0.03
1496.06,1.1,-0.67,0.41,6.38,-7.4,0.25,-0.03
1496.2,1.11,-0.67,0.49,6.37,-7.4,0.26,-0.03
1496.33,1.13,-0.65,0.5,6.35,-7.42,0.29,-0.03
1496.47,1.14,-0.65,0.43,6.34,-7.43,0.31,-0.03
1496.61,1.13,-0.63,0.37,6.34,-7.43,0.31,-0.03
1496.75,1.13,-0.62,0.38,6.33,-7.43,0.29,-0.03
1496.88,1.12,-0.63,0.43,6.34,-7.41,0.29,-0.03
1497.02,1.09,-0.63,0.43,6.36,-7.39,0.29,-0.03
1497.16,1.05,-0.61,0.38,6.37,-7.37,0.29,-0.03
1497.3,1.0,-0.62,0.34,6.38,-7.38,0.28,-0.03
1497.43,1.0,-0.64,0.36,6.37,-7.4,0.27,-0.03
1497.57,1.03,-0.67,0.41,6.34,-7.44,0.27,-0.03
1497.71,1.04,-0.71,0.46,6.32,-7.48,0.27,-0.03
1497.85,1.05,-0.73,0.5,6.3,-7.51,0.27,-0.03
1497.98,1.06,-0.71,0.5,6.31,-7.5,0.26,-0.03
1498.12,1.05,-0.66,0.45,6.32,-7.48,0.26,-0.03
1498.26,1.03,-0.61,0.42,6.33,-7.46,0.27,-0.03
1498.4,1.03,-0.58,0.41,6.34,-7.44,0.28,-0.03
1498.53,1.06,-0.58,0.38,6.35,-7.44,0.28,-0.03
1498.67,1.1,-0.62,0.33,6.34,-7.45,0.28,-0.03
1498.81,1.1,-0.65,0.31,6.33,-7.45,0.28,-0.03
1498.95,1.07,-0.63,0.31,6.34,-7.45,0.28,-0.03
1499.08,1.04,-0.6,0.34,6.35,-7.45,0.27,-0.03
1499.22,1.04,-0.58,0.39,6.37,-7.44,0.26,-0.03
1499.36,1.05,-0.55,0.42,6.38,-7.43,0.28,-0.03
1499.49,1.03,-0.53,0.46,6.4,-7.42,0.3,-0.03
1499.63,1.01,-0.57,0.44,6.39,-7.41,0.3,-0.03
1499.77,1.02,-0.66,0.4,6.37,-7.43,0.29,-0.03
1499.91,1.01,-0.71,0.41,6.36,-7.44,0.28,-0.03
1500.05,1.01,-0.73,0.42,6.35,-7.46,0.27,-0.03
1500.18,1.02,-0.73,0.38,6.34,-7.47,0.26,-0.03
1500.32,1.02,-0.68,0.33,6.35,-7.46,0.26,-0.03
1500.46,1.0,-0.6,0.35,6.35,-7.45,0.27,-0.03
1500.59,0.96,-0.52,0.38,6.35,-7.44,0.29,-0.03
1500.73,0.94,-0.5,0.36,6.35,-7.45,0.31,-0.03
1500.87,0.98,-0.54,0.33,6.35,-7.47,0.31,-0.03
1501.01,1.03,-0.61,0.35,6.35,-7.48,0.29,-0.03
1501.15,1.07,-0.65,0.36,6.35,-7.48,0.27,-0.03
1501.28,1.1,-0.64,0.33,6.35,-7.46,0.26,-0.03
1501.42,1.14,-0.64,0.32,6.35,-7.45,0.26,-0.03
1501.56,1.13,-0.62,0.33,6.34,-7.44,0.26,-0.03
1501.69,1.08,-0.57,0.36,6.33,-7.45,0.26,-0.03
1501.83,1.04,-0.53,0.4,6.32,-7.46,0.26,-0.03
1501.97,1.04,-0.56,0.41,6.32,-7.46,0.26,-0.03
1502.11,1.06,-0.6,0.38,6.34,-7.46,0.26,-0.03
1502.24,1.09,-0.65,0.34,6.34,-7.46,0.25,-0.03
1502.38,1.14,-0.7,0.32,6.33,-7.46,0.26,-0.03
1502.52,1.12,-0.73,0.32,6.32,-7.45,0.29,-0.03
1502.66,1.05,-0.7,0.33,6.31,-7.43,0.29,-0.03
1502.79,0.98,-0.65,0.36,6.32,-7.43,0.28,-0.03
1502.93,0.93,-0.64,0.4,6.34,-7.43,0.3,-0.03
1503.07,0.93,-0.66,0.43,6.35,-7.43,0.32,-0.03
1503.21,0.95,-0.69,0.44,6.34,-7.42,0.31,-0.03
1503.34,0.98,-0.69,0.45,6.34,-7.42,0.29,-0.03
1503.48,1.0,-0.65,0.46,6.34,-7.41,0.27,-0.03
1503.62,1.03,-0.62,0.46,6.35,-7.41,0.26,-0.03
1503.76,1.04,-0.61,0.43,6.35,-7.39,0.28,-0.03
1503.89,1.05,-0.61,0.39,6.35,-7.39,0.3,-0.03
1504.03,1.06,-0.62,0.38,6.36,-7.39,0.32,-0.03
1504.17,1.05,-0.64,0.39,6.37,-7.39,0.33,-0.03
1504.31,1.03,-0.68,0.39,6.38,-7.39,0.33,-0.03
1504.44,1.02,-0.68,0.37,6.37,-7.42,0.32,-0.03
1504.58,0.99,-0.66,0.35,6.35,-7.44,0.31,-0.03
1504.72,0.98,-0.63,0.33,6.34,-7.44,0.3,-0.03
1504.86,1.01,-0.6,0.31,6.34,-7.44,0.29,-0.03
1504.99,1.08,-0.58,0.31,6.33,-7.43,0.29,-0.03
1505.13,1.13,-0.58,0.31,6.33,-7.45,0.29,-0.03
1505.27,1.13,-0.6,0.32,6.34,-7.47,0.3,-0.03
1505.41,1.09,-0.63,0.34,6.36,-7.47,0.3,-0.03
1505.54,1.04,-0.62,0.37,6.36,-7.46,0.29,-0.03
1505.68,1.01,-0.61,0.41,6.35,-7.46,0.28,-0.03
1505.82,1.02,-0.64,0.47,6.34,-7.47,0.29,-0.03
1505.96,1.05,-0.67,0.52,6.34,-7.48,0.3,-0.03
1506.09,1.08,-0.67,0.51,6.35,-7.49,0.3,-0.03
1506.23,1.07,-0.66,0.44,6.36,-7.49,0.29,-0.03
1506.37,1.06,-0.65,0.38,6.36,-7.48,0.29,-0.03
1506.51,1.06,-0.63,0.36,6.35,-7.46,0.29,-0.03
1506.64,1.05,-0.64,0.39,6.34,-7.45,0.29,-0.03
1506.78,1.05,-0.69,0.44,6.33,-7.45,0.31,-0.03
1506.92,1.05,-0.68,0.47,6.33,-7.45,0.33,-0.03
1507.06,1.06,-0.62,0.46,6.33,-7.45,0.34,-0.03
1507.19,1.09,-0.58,0.44,6.34,-7.44,0.33,-0.03
1507.33,1.15,-0.59,0.41,6.33,-7.44,0.31,-0.03
1507.47,1.17,-0.62,0.39,6.32,-7.44,0.3,-0.03
1507.6,1.12,-0.64,0.38,6.33,-7.43,0.29,-0.03
1507.74,1.04,-0.66,0.37,6.35,-7.43,0.29,-0.03
1507.88,1.02,-0.65,0.36,6.36,-7.44,0.3,-0.03
1508.02,1.05,-0.61,0.36,6.37,-7.44,0.31,-0.03
1508.15,1.08,-0.57,0.4,6.37,-7.44,0.31,-0.03
1508.29,1.11,-0.56,0.47,6.35,-7.44,0.3,-0.03
1508.43,1.15,-0.59,0.52,6.34,-7.43,0.3,-0.03
1508.57,1.14,-0.6,0.51,6.33,-7.42,0.3,-0.03
1508.7,1.09,-0.6,0.49,6.33,-7.42,0.3,-0.03
1508.84,1.03,-0.62,0.48,6.32,-7.42,0.29,-0.03
1508.98,1.0,-0.65,0.48,6.32,-7.44,0.28,-0.03
1509.11,1.01,-0.63,0.48,6.33,-7.45,0.27,-0.03
1509.25,1.03,-0.6,0.5,6.35,-7.46,0.27,-0.03
1509.39,1.07,-0.58,0.49,6.36,-7.46,0.28,-0.03
1509.53,1.1,-0.56,0.42,6.35,-7.46,0.29,-0.03
1509.67,1.09,-0.57,0.37,6.34,-7.45,0.29,-0.03
1509.8,1.02,-0.61,0.34,6.33,-7.44,0.29,-0.03
1509.94,0.95,-0.62,0.31,6.33,-7.44,0.29,-0.03
1510.08,0.95,-0.65,0.27,6.34,-7.45,0.27,-0.03
1510.21,0.99,-0.67,0.27,6.36,-7.45,0.26,-0.03
1510.35,1.02,-0.66,0.28,6.36,-7.45,0.25,-0.03
1510.49,1.03,-0.62,0.29,6.36,-7.46,0.26,-0.03
1510.63,1.04,-0.6,0.3,6.34,-7.46,0.28,-0.03
1510.76,1.03,-0.59,0.33,6.32,-7.46,0.29,-0.03
1510.9,1.02,-0.63,0.37,6.3,-7.45,0.3,-0.03
1511.04,1.04,-0.7,0.44,6.29,-7.44,0.31,-0.03
1511.18,1.04,-0.76,0.47,6.3,-7.44,0.31,-0.03
1511.31,1.02,-0.77,0.48,6.32,-7.44,0.3,-0.03
1511.45,1.02,-0.74,0.49,6.35,-7.44,0.27,-0.03
1511.59,1.03,-0.71,0.47,6.36,-7.45,0.25,-0.03
1511.72,1.04,-0.69,0.42,6.36,-7.45,0.26,-0.03
1511.86,1.04,-0.67,0.37,6.34,-7.46,0.26,-0.03
1512.0,1.01,-0.66,0.34,6.33,-7.45,0.26,-0.03
1512.14,0.99,-0.65,0.35,6.33,-7.44,0.26,-0.03
1512.28,0.99,-0.62,0.37,6.32,-7.44,0.26,-0.03
1512.41,0.99,-0.58,0.37,6.33,-7.44,0.27,-0.03
1512.55,0.97,-0.58,0.36,6.34,-7.44,0.28,-0.03
1512.69,0.95,-0.62,0.37,6.35,-7.44,0.28,-0.03
1512.82,0.96,-0.65,0.39,6.35,-7.43,0.28,-0.03
1512.96,0.98,-0.66,0.4,6.35,-7.43,0.29,-0.03
1513.1,0.99,-0.65,0.39,6.36,-7.44,0.3,-0.03
1513.24,1.02,-0.62,0.39,6.36,-7.45,0.31,-0.03
1513.38,1.05,-0.63,0.36,6.36,-7.46,0.32,-0.03
1513.51,1.07,-0.66,0.32,6.36,-7.46,0.33,-0.03
1513.65,1.1,-0.67,0.31,6.37,-7.45,0.31,-0.03
1513.79,1.11,-0.66,0.36,6.38,-7.43,0.28,-0.03
1513.92,1.08,-0.67,0.45,6.38,-7.42,0.27,-0.03
1514.06,1.04,-0.7,0.5,6.37,-7.44,0.27,-0.03
1514.2,1.05,-0.73,0.47,6.36,-7.46,0.27,-0.03
1514.34,1.09,-0.71,0.39,6.34,-7.47,0.29,-0.03
1514.47,1.1,-0.69,0.34,6.31,-7.45,0.33,-0.03
1514.61,1.1,-0.68,0.33,6.31,-7.44,0.33,-0.03
1514.75,1.14,-0.65,0.36,6.31,-7.44,0.31,-0.03
1514.89,1.16,-0.61,0.39,6.31,-7.45,0.29,-0.03
1515.02,1.11,-0.61,0.39,6.32,-7.46,0.28,-0.03
1515.16,1.06,-0.64,0.38,6.33,-7.48,0.28,-0.03
1515.3,1.04,-0.67,0.41,6.34,-7.47,0.29,-0.03
1515.44,1.03,-0.68,0.45,6.35,-7.46,0.3,-0.03
1515.57,1.03,-0.65,0.42,6.37,-7.45,0.3,-0.03
1515.71,1.04,-0.61,0.37,6.38,-7.43,0.31,-0.03
1515.85,1.05,-0.57,0.37,6.37,-7.42,0.3,-0.03
1515.98,1.03,-0.57,0.42,6.35,-7.41,0.28,-0.03
1516.12,1.01,-0.63,0.44,6.34,-7.41,0.28,-0.03
1516.26,0.98,-0.71,0.39,6.35,-7.42,0.29,-0.03
1516.4,0.98,-0.76,0.36,6.35,-7.43,0.29,-0.03
1516.54,1.03,-0.76,0.39,6.36,-7.44,0.29,-0.03
1516.67,1.07,-0.74,0.46,6.36,-7.45,0.3,-0.03
1516.81,1.06,-0.75,0.5,6.36,-7.46,0.3,-0.03
1516.95,1.01,-0.73,0.51,6.37,-7.46,0.28,-0.03
1517.08,0.99,-0.65,0.51,6.37,-7.45,0.27,-0.03
1517.22,0.99,-0.6,0.46,6.36,-7.45,0.27,-0.03
1517.36,0.97,-0.59,0.39,6.35,-7.45,0.27,-0.03
1517.5,0.96,-0.6,0.38,6.34,-7.46,0.27,-0.03
1517.63,1.0,-0.65,0.41,6.33,-7.46,0.27,-0.03
1517.77,1.05,-0.7,0.44,6.31,-7.47,0.27,-0.03
1517.91,1.09,-0.72,0.45,6.3,-7.47,0.27,-0.03
1518.05,1.14,-0.71,0.43,6.32,-7.47,0.25,-0.03
1518.18,1.17,-0.7,0.39,6.33,-7.45,0.24,-0.03
1518.32,1.14,-0.71,0.35,6.34,-7.44,0.24,-0.03
1518.46,1.1,-0.76,0.33,6.33,-7.45,0.25,-0.03
1518.6,1.07,-0.77,0.35,6.33,-7.46,0.27,-0.03
1518.73,1.05,-0.77,0.38,6.32,-7.47,0.29,-0.03
1518.87,1.05,-0.78,0.38,6.31,-7.47,0.29,-0.03
1519.01,1.09,-0.77,0.37,6.32,-7.47,0.27,-0.03
1519.15,1.13,-0.74,0.38,6.33,-7.47,0.26,-0.03
1519.28,1.11,-0.7,0.39,6.34,-7.47,0.26,-0.03
1519.42,1.07,-0.67,0.39,6.35,-7.45,0.28,-0.03
1519.56,1.04,-0.66,0.34,6.34,-7.44,0.3,-0.03
1519.69,1.01,-0.63,0.3,6.34,-7.45,0.31,-0.03
1519.83,0.97,-0.58,0.33,6.34,-7.46,0.3,-0.03
1519.97,0.96,-0.56,0.36,6.32,-7.46,0.29,-0.03
1520.11,0.98,-0.58,0.36,6.32,-7.46,0.29,-0.03
1520.24,0.99,-0.6,0.34,6.34,-7.45,0.31,-0.03
1520.38,1.0,-0.6,0.32,6.35,-7.45,0.3,-0.03
1520.52,1.02,-0.61,0.32,6.35,-7.45,0.29,-0.03
1520.66,1.02,-0.65,0.33,6.34,-7.46,0.29,-0.03
1520.8,1.02,-0.68,0.36,6.34,-7.45,0.29,-0.03
1520.93,1.04,-0.67,0.4,6.33,-7.45,0.3,-0.03
1521.07,1.09,-0.64,0.42,6.33,-7.46,0.3,-0.03
1521.21,1.15,-0.63,0.41,6.33,-7.47,0.3,-0.03
1521.34,1.18,-0.61,0.41,6.34,-7.46,0.3,-0.03
1521.48,1.18,-0.59,0.42,6.35,-7.46,0.27,-0.03
1521.62,1.17,-0.58,0.41,6.34,-7.45,0.25,-0.03
1521.76,1.17,-0.61,0.39,6.34,-7.45,0.27,-0.03
1521.89,1.15,-0.66,0.36,6.34,-7.45,0.31,-0.03
1522.03,1.13,-0.71,0.36,6.33,-7.46,0.32,-0.03
1522.17,1.12,-0.71,0.37,6.32,-7.47,0.32,-0.03
1522.31,1.12,-0.67,0.38,6.31,-7.47,0.31,-0.03
1522.44,1.09,-0.63,0.37,6.3,-7.47,0.32,-0.03
1522.58,1.06,-0.63,0.35,6.31,-7.45,0.32,-0.03
1522.72,1.06,-0.64,0.33,6.32,-7.44,0.32,-0.03
1522.86,1.03,-0.66,0.39,6.34,-7.44,0.32,-0.03
1522.99,0.97,-0.68,0.48,6.36,-7.46,0.31,-0.03
1523.13,0.95,-0.67,0.53,6.38,-7.46,0.29,-0.03
1523.27,0.96,-0.68,0.51,6.37,-7.47,0.27,-0.03
1523.41,1.0,-0.7,0.44,6.36,-7.46,0.28,-0.03
1523.54,1.06,-0.69,0.39,6.35,-7.46,0.29,-0.03
1523.68,1.08,-0.66,0.39,6.34,-7.45,0.29,-0.03
1523.82,1.07,-0.66,0.39,6.33,-7.43,0.28,-0.03
1523.95,1.06,-0.7,0.4,6.33,-7.42,0.27,-0.03
1524.09,1.06,-0.71,0.43,6.34,-7.43,0.26,-0.03
1524.23,1.06,-0.71,0.44,6.35,-7.43,0.28,-0.03
1524.37,1.03,-0.7,0.44,6.35,-7.43,0.31,-0.03
1524.51,0.99,-0.67,0.44,6.34,-7.42,0.31,-0.03
1524.64,0.98,-0.63,0.42,6.34,-7.43,0.29,-0.03
1524.78,1.0,-0.61,0.4,6.35,-7.44,0.29,-0.03
1524.92,1.02,-0.59,0.39,6.36,-7.46,0.29,-0.03
1525.06,1.0,-0.57,0.38,6.38,-7.45,0.3,-0.03
1525.19,0.99,-0.57,0.37,6.4,-7.41,0.33,-0.03
1525.33,1.03,-0.57,0.37,6.4,-7.39,0.35,-0.03
1525.47,1.05,-0.56,0.36,6.38,-7.4,0.34,-0.03
1525.6,1.0,-0.57,0.35,6.36,-7.42,0.33,-0.03
1525.74,0.95,-0.6,0.35,6.35,-7.45,0.31,-0.03
1525.88,0.93,-0.62,0.33,6.34,-7.45,0.28,-0.03
1526.02,0.94,-0.64,0.34,6.33,-7.45,0.26,-0.03
1526.15,0.97,-0.64,0.42,6.33,-7.46,0.26,-0.03
1526.29,1.01,-0.61,0.49,6.33,-7.45,0.28,-0.03
1526.43,1.04,-0.62,0.53,6.33,-7.44,0.29,-0.03
1526.57,1.06,-0.71,0.53,6.35,-7.42,0.29,-0.03
1526.7,1.07,-0.78,0.47,6.37,-7.41,0.29,-0.03
1526.84,1.05,-0.78,0.41,6.38,-7.42,0.27,-0.03
1526.98,1.05,-0.71,0.4,6.36,-7.45,0.27,-0.03
1527.12,1.06,-0.64,0.42,6.34,-7.46,0.27,-0.03
1527.25,1.07,-0.62,0.44,6.34,-7.46,0.27,-0.03
1527.39,1.11,-0.65,0.45,6.33,-7.46,0.26,-0.03
1527.53,1.13,-0.69,0.46,6.32,-7.46,0.25,-0.03
1527.67,1.09,-0.68,0.49,6.32,-7.45,0.26,-0.03
1527.8,1.06,-0.67,0.5,6.32,-7.45,0.28,-0.03
1527.94,1.07,-0.67,0.46,6.32,-7.45,0.29,-0.03
1528.08,1.09,-0.67,0.43,6.34,-7.45,0.3,-0.03
1528.21,1.06,-0.68,0.43,6.35,-7.44,0.28,-0.03
1528.35,1.02,-0.68,0.44,6.35,-7.44,0.27,-0.03
1528.49,1.01,-0.67,0.43,6.35,-7.44,0.28,-0.03
1528.63,1.03,-0.65,0.46,6.35,-7.44,0.29,-0.03
1528.77,1.05,-0.64,0.48,6.33,-7.44,0.29,-0.03
1528.9,1.07,-0.69,0.47,6.32,-7.43,0.29,-0.03
1529.04,1.07,-0.71,0.44,6.32,-7.42,0.3,-0.03
1529.18,1.05,-0.69,0.4,6.34,-7.42,0.3,-0.03
1529.31,1.04,-0.66,0.35,6.35,-7.42,0.29,-0.03
1529.45,1.06,-0.63,0.33,6.36,-7.42,0.28,-0.03
1529.59,1.1,-0.61,0.35,6.35,-7.44,0.28,-0.03
1529.73,1.12,-0.62,0.38,6.33,-7.46,0.29,-0.03
1529.86,1.12,-0.65,0.42,6.32,-7.46,0.3,-0.03
1530.0,1.12,-0.66,0.43,6.33,-7.46,0.31,-0.03
1530.14,1.14,-0.66,0.39,6.34,-7.44,0.3,-0.03
1530.28,1.15,-0.67,0.35,6.35,-7.43,0.29,-0.03
1530.42,1.11,-0.68,0.36,6.36,-7.43,0.29,-0.03
1530.55,1.04,-0.69,0.39,6.36,-7.43,0.3,-0.03
1530.69,0.99,-0.72,0.42,6.35,-7.43,0.3,-0.03
1530.83,0.98,-0.73,0.41,6.34,-7.45,0.29,-0.03
1530.96,0.97,-0.72,0.38,6.33,-7.45,0.28,-0.03
1531.1,0.97,-0.68,0.39,6.33,-7.43,0.29,-0.03
1531.24,1.0,-0.62,0.4,6.33,-7.41,0.29,-0.03
1531.38,1.04,-0.56,0.39,6.33,-7.41,0.28,-0.03
1531.51,1.03,-0.53,0.39,6.33,-7.43,0.27,-0.03
1531.65,1.01,-0.57,0.38,6.35,-7.44,0.29,-0.03
1531.79,1.03,-0.63,0.38,6.36,-7.44,0.31,-0.03
1531.93,1.05,-0.67,0.42,6.36,-7.45,0.32,-0.03
1532.06,1.07,-0.68,0.47,6.35,-7.46,0.33,-0.03
1532.2,1.08,-0.67,0.5,6.35,-7.45,0.33,-0.03
1532.34,1.09,-0.65,0.5,6.36,-7.44,0.33,-0.03
1532.48,1.12,-0.65,0.48,6.36,-7.44,0.33,-0.03
1532.61,1.13,-0.67,0.47,6.36,-7.45,0.34,-0.03
1532.75,1.1,-0.7,0.47,6.35,-7.47,0.33,-0.03
1532.89,1.04,-0.71,0.47,6.35,-7.48,0.32,-0.03
1533.03,1.01,-0.67,0.47,6.34,-7.47,0.3,-0.03
1533.16,1.01,-0.64,0.44,6.33,-7.45,0.29,-0.03
1533.3,1.03,-0.64,0.45,6.32,-7.45,0.29,-0.03
1533.44,1.06,-0.67,0.49,6.32,-7.46,0.3,-0.03
1533.58,1.09,-0.68,0.47,6.32,-7.47,0.3,-0.03
1533.71,1.06,-0.67,0.41,6.33,-7.46,0.29,-0.03
1533.85,1.02,-0.67,0.35,6.33,-7.43,0.28,-0.03
1533.99,1.0,-0.66,0.32,6.34,-7.42,0.26,-0.03
1534.13,1.0,-0.63,0.32,6.35,-7.43,0.26,-0.03
1534.26,0.99,-0.59,0.32,6.35,-7.44,0.27,-0.03
1534.4,0.99,-0.59,0.34,6.34,-7.45,0.28,-0.03
1534.54,0.98,-0.59,0.36,6.34,-7.47,0.28,-0.03
1534.68,0.98,-0.63,0.38,6.34,-7.47,0.26,-0.03
1534.81,1.0,-0.68,0.37,6.34,-7.46,0.25,-0.03
1534.95,1.05,-0.69,0.38,6.34,-7.45,0.26,-0.03
1535.09,1.09,-0.69,0.42,6.33,-7.45,0.29,-0.03
1535.23,1.09,-0.68,0.44,6.32,-7.44,0.3,-0.03
1535.36,1.07,-0.66,0.46,6.32,-7.44,0.3,-0.03
1535.5,1.04,-0.64,0.49,6.34,-7.43,0.3,-0.03
1535.64,1.03,-0.65,0.49,6.36,-7.42,0.29,-0.03
1535.78,1.02,-0.65,0.44,6.37,-7.42,0.28,-0.03
1535.91,1.0,-0.63,0.38,6.36,-7.43,0.28,-0.03
1536.05,0.99,-0.6,0.34,6.35,-7.42,0.29,-0.03
1536.19,1.03,-0.59,0.34,6.35,-7.42,0.29,-0.03
1536.32,1.07,-0.62,0.38,6.37,-7.4,0.29,-0.03
1536.46,1.06,-0.65,0.44,6.38,-7.4,0.29,-0.03
1536.6,1.04,-0.64,0.46,6.37,-7.42,0.29,-0.03
1536.74,1.03,-0.62,0.44,6.34,-7.45,0.29,-0.03
1536.88,1.06,-0.66,0.42,6.31,-7.48,0.28,-0.03
1537.01,1.08,-0.71,0.45,6.31,-7.48,0.27,-0.03
1537.15,1.06,-0.71,0.49,6.33,-7.47,0.28,-0.03
1537.29,1.05,-0.67,0.48,6.35,-7.45,0.29,-0.03
1537.43,1.06,-0.64,0.43,6.35,-7.44,0.29,-0.03
1537.56,1.06,-0.62,0.37,6.35,-7.44,0.3,-0.03
1537.7,1.02,-0.61,0.31,6.35,-7.44,0.3,-0.03
1537.84,0.97,-0.59,0.27,6.34,-7.43,0.29,-0.03
1537.97,0.97,-0.55,0.28,6.35,-7.43,0.28,-0.03
1538.11,1.04,-0.55,0.35,6.36,-7.43,0.27,-0.03
1538.25,1.1,-0.6,0.42,6.37,-7.45,0.28,-0.03
1538.39,1.14,-0.64,0.43,6.37,-7.44,0.29,-0.03
1538.53,1.16,-0.66,0.43,6.36,-7.43,0.29,-0.03
1538.66,1.14,-0.67,0.41,6.37,-7.45,0.28,-0.03
1538.8,1.09,-0.66,0.4,6.37,-7.46,0.28,-0.03
1538.94,1.04,-0.67,0.42,6.36,-7.45,0.3,-0.03
1539.07,0.99,-0.7,0.46,6.34,-7.44,0.31,-0.03
1539.21,0.93,-0.71,0.46,6.32,-7.43,0.32,-0.03
1539.35,0.93,-0.71,0.4,6.32,-7.42,0.32,-0.03
1539.49,1.0,-0.71,0.35,6.32,-7.42,0.3,-0.03
1539.62,1.07,-0.72,0.35,6.32,-7.43,0.3,-0.03
1539.76,1.11,-0.73,0.36,6.32,-7.42,0.29,-0.03
1539.9,1.11,-0.71,0.33,6.32,-7.42,0.27,-0.03
1540.04,1.08,-0.7,0.31,6.33,-7.42,0.27,-0.03
1540.17,1.03,-0.74,0.34,6.34,-7.42,0.29,-0.03
1540.31,0.99,-0.81,0.4,6.34,-7.43,0.31,-0.03
1540.45,0.99,-0.82,0.44,6.34,-7.44,0.32,-0.03
1540.59,1.0,-0.75,0.44,6.33,-7.45,0.31,-0.03
1540.72,1.01,-0.69,0.45,6.32,-7.45,0.32,-0.03
1540.86,1.02,-0.67,0.48,6.32,-7.45,0.31,-0.03
1541.0,1.03,-0.67,0.47,6.35,-7.44,0.29,-0.03
1541.14,1.07,-0.67,0.43,6.36,-7.43,0.28,-0.03
1541.27,1.09,-0.69,0.4,6.36,-7.43,0.29,-0.03
1541.41,1.09,-0.71,0.37,6.35,-7.44,0.29,-0.03
1541.55,1.09,-0.68,0.37,6.34,-7.45,0.29,-0.03
1541.69,1.07,-0.63,0.39,6.34,-7.45,0.28,-0.03
1541.82,1.04,-0.64,0.41,6.35,-7.44,0.28,-0.03
1541.96,1.04,-0.66,0.43,6.37,-7.43,0.3,-0.03
1542.1,1.04,-0.66,0.48,6.37,-7.43,0.31,-0.03
1542.24,1.04,-0.64,0.52,6.37,-7.42,0.31,-0.03
1542.37,1.03,-0.61,0.48,6.36,-7.43,0.31,-0.03
1542.51,1.05,-0.6,0.41,6.34,-7.46,0.29,-0.03
1542.65,1.09,-0.59,0.4,6.34,-7.47,0.28,-0.03
1542.79,1.1,-0.6,0.4,6.35,-7.45,0.28,-0.03
1542.92,1.08,-0.64,0.4,6.36,-7.43,0.28,-0.03
1543.06,1.06,-0.67,0.41,6.36,-7.41,0.29,-0.03
1543.2,1.08,-0.7,0.43,6.37,-7.39,0.3,-0.03
1543.34,1.1,-0.73,0.45,6.35,-7.39,0.29,-0.03
1543.47,1.1,-0.74,0.45,6.33,-7.41,0.28,-0.03
1543.61,1.11,-0.74,0.4,6.32,-7.43,0.27,-0.03
1543.75,1.06,-0.7,0.36,6.32,-7.44,0.29,-0.03
1543.89,0.99,-0.65,0.33,6.34,-7.46,0.31,-0.03
1544.02,0.98,-0.62,0.3,6.36,-7.46,0.31,-0.03
1544.16,1.02,-0.63,0.28,6.36,-7.44,0.29,-0.03
1544.3,1.1,-0.67,0.25,6.36,-7.42,0.27,-0.03
1544.44,1.15,-0.73,0.25,6.36,-7.42,0.26,-0.03
1544.57,1.12,-0.77,0.28,6.35,-7.44,0.26,-0.03
1544.71,1.03,-0.78,0.34,6.34,-7.45,0.27,-0.03
1544.85,0.97,-0.73,0.41,6.32,-7.45,0.29,-0.03
1544.99,0.93,-0.69,0.47,6.31,-7.45,0.29,-0.03
1545.12,0.93,-0.68,0.52,6.31,-7.44,0.29,-0.03
1545.26,0.98,-0.68,0.54,6.34,-7.45,0.29,-0.03
1545.4,1.04,-0.66,0.48,6.35,-7.46,0.3,-0.03
1545.54,1.08,-0.64,0.4,6.34,-7.45,0.3,-0.03
1545.67,1.08,-0.6,0.32,6.34,-7.43,0.29,-0.03
1545.81,1.06,-0.56,0.29,6.33,-7.43,0.3,-0.03
1545.95,1.06,-0.58,0.32,6.33,-7.44,0.3,-0.03
1546.08,1.1,-0.64,0.37,6.33,-7.43,0.29,-0.03
1546.22,1.12,-0.68,0.43,6.35,-7.43,0.26,-0.03
1546.36,1.09,-0.7,0.45,6.35,-7.44,0.24,-0.03
1546.5,1.07,-0.68,0.41,6.34,-7.44,0.24,-0.03
1546.64,1.07,-0.68,0.33,6.34,-7.44,0.24,-0.03
1546.77,1.07,-0.69,0.25,6.33,-7.44,0.24,-0.03
1546.91,1.06,-0.69,0.25,6.31,-7.44,0.26,-0.03
1547.05,1.04,-0.68,0.28,6.31,-7.46,0.28,-0.03
1547.19,1.03,-0.67,0.35,6.33,-7.47,0.28,-0.03
1547.32,1.03,-0.66,0.42,6.35,-7.46,0.27,-0.03
1547.46,1.08,-0.67,0.48,6.35,-7.44,0.25,-0.03
1547.6,1.15,-0.69,0.51,6.35,-7.44,0.24,-0.03
1547.73,1.17,-0.71,0.5,6.35,-7.46,0.25,-0.03
1547.87,1.11,-0.71,0.45,6.35,-7.47,0.24,-0.03
1548.01,1.06,-0.7,0.41,6.35,-7.47,0.25,-0.03
1548.15,1.05,-0.67,0.39,6.35,-7.45,0.27,-0.03
1548.29,1.05,-0.63,0.37,6.36,-7.42,0.29,-0.03
1548.42,1.06,-0.6,0.34,6.37,-7.41,0.29,-0.03
1548.56,1.08,-0.61,0.28,6.37,-7.42,0.28,-0.03
1548.7,1.08,-0.63,0.23,6.36,-7.43,0.29,-0.03
1548.83,1.06,-0.64,0.22,6.34,-7.45,0.28,-0.03
1548.97,1.1,-0.64,0.27,6.32,-7.46,0.28,-0.03
1549.11,1.14,-0.61,0.35,6.31,-7.46,0.29,-0.03
1549.25,1.13,-0.59,0.41,6.3,-7.46,0.31,-0.03
1549.38,1.07,-0.61,0.44,6.31,-7.45,0.31,-0.03
1549.52,1.02,-0.63,0.44,6.31,-7.43,0.3,-0.03
1549.66,1.01,-0.64,0.43,6.32,-7.44,0.28,-0.03
1549.8,1.01,-0.65,0.46,6.34,-7.45,0.28,-0.03
1549.93,1.02,-0.67,0.49,6.35,-7.46,0.29,-0.03
1550.07,1.04,-0.67,0.51,6.36,-7.48,0.3,-0.03
1550.21,1.07,-0.67,0.51,6.37,-7.48,0.29,-0.03
1550.34,1.09,-0.67,0.5,6.36,-7.48,0.27,-0.03
1550.48,1.07,-0.65,0.47,6.35,-7.47,0.27,-0.03
1550.62,1.01,-0.62,0.44,6.36,-7.46,0.27,-0.03
1550.76,0.95,-0.64,0.41,6.37,-7.45,0.27,-0.03
1550.9,0.93,-0.71,0.39,6.38,-7.45,0.28,-0.03
1551.03,0.97,-0.75,0.36,6.4,-7.45,0.3,-0.03
1551.17,1.01,-0.76,0.35,6.41,-7.44,0.31,-0.03
1551.31,1.03,-0.76,0.37,6.39,-7.43,0.31,-0.03
1551.44,1.03,-0.75,0.4,6.35,-7.43,0.3,-0.03
1551.58,1.01,-0.71,0.44,6.33,-7.44,0.29,-0.03
1551.72,1.0,-0.65,0.48,6.34,-7.45,0.3,-0.03
1551.86,1.01,-0.59,0.48,6.34,-7.45,0.31,-0.03
1551.99,1.03,-0.58,0.42,6.35,-7.45,0.32,-0.03
1552.13,1.03,-0.6,0.35,6.35,-7.45,0.3,-0.03
1552.27,1.01,-0.67,0.33,6.35,-7.45,0.26,-0.03
1552.41,1.0,-0.73,0.34,6.34,-7.45,0.25,-0.03
1552.55,1.02,-0.7,0.34,6.35,-7.46,0.27,-0.03
1552.68,1.04,-0.66,0.33,6.36,-7.45,0.31,-0.03
1552.82,1.05,-0.66,0.36,6.36,-7.45,0.32,-0.03
1552.96,1.08,-0.68,0.39,6.35,-7.44,0.31,-0.03
1553.09,1.1,-0.69,0.4,6.34,-7.43,0.3,-0.03
1553.23,1.07,-0.69,0.38,6.33,-7.43,0.31,-0.03
1553.37,1.02,-0.65,0.37,6.33,-7.43,0.3,-0.03
1553.51,1.0,-0.59,0.37,6.33,-7.42,0.28,-0.03
1553.64,1.02,-0.55,0.35,6.34,-7.42,0.26,-0.03
1553.78,1.03,-0.56,0.34,6.34,-7.43,0.26,-0.03
1553.92,1.02,-0.6,0.39,6.34,-7.43,0.27,-0.03
1554.06,1.02,-0.64,0.45,6.34,-7.44,0.28,-0.03
1554.19,1.03,-0.62,0.46,6.36,-7.45,0.28,-0.03
1554.33,1.05,-0.59,0.45,6.38,-7.44,0.3,-0.03
1554.47,1.05,-0.59,0.46,6.39,-7.43,0.32,-0.03
1554.61,1.06,-0.61,0.47,6.38,-7.43,0.32,-0.03
1554.74,1.07,-0.64,0.46,6.36,-7.44,0.32,-0.03
1554.88,1.07,-0.66,0.42,6.35,-7.45,0.3,-0.03
1555.02,1.05,-0.67,0.38,6.34,-7.46,0.28,-0.03
1555.16,1.06,-0.65,0.36,6.32,-7.47,0.28,-0.03
1555.29,1.06,-0.64,0.36,6.31,-7.46,0.28,-0.03
1555.43,1.05,-0.64,0.37,6.33,-7.45,0.31,-0.03
1555.57,1.05,-0.65,0.39,6.33,-7.42,0.34,-0.03
1555.7,1.06,-0.65,0.41,6.32,-7.41,0.33,-0.03
1555.84,1.02,-0.69,0.41,6.32,-7.41,0.29,-0.03
1555.98,1.0,-0.72,0.41,6.31,-7.43,0.26,-0.03
1556.12,1.01,-0.68,0.44,6.32,-7.44,0.26,-0.03
1556.25,1.02,-0.61,0.47,6.33,-7.45,0.28,-0.03
1556.39,1.02,-0.58,0.45,6.33,-7.45,0.27,-0.03
1556.53,1.01,-0.59,0.42,6.33,-7.44,0.25,-0.03
1556.67,1.02,-0.6,0.37,6.34,-7.44,0.25,-0.03
1556.8,1.01,-0.63,0.35,6.36,-7.44,0.27,-0.03
1556.94,1.0,-0.64,0.35,6.38,-7.44,0.29,-0.03
1557.08,1.01,-0.63,0.39,6.38,-7.46,0.3,-0.03
1557.22,1.02,-0.62,0.45,6.36,-7.47,0.29,-0.03
1557.35,1.02,-0.61,0.46,6.34,-7.48,0.28,-0.03
1557.49,1.05,-0.62,0.4,6.34,-7.48,0.27,-0.03
1557.63,1.1,-0.63,0.36,6.33,-7.47,0.25,-0.03
1557.77,1.11,-0.61,0.37,6.32,-7.45,0.26,-0.03
1557.9,1.08,-0.6,0.38,6.31,-7.43,0.29,-0.03
1558.04,1.04,-0.63,0.4,6.32,-7.43,0.3,-0.03
1558.18,1.04,-0.68,0.39,6.32,-7.44,0.3,-0.03
1558.31,1.04,-0.68,0.38,6.33,-7.46,0.29,-0.03
1558.45,1.04,-0.68,0.39,6.34,-7.47,0.27,-0.03
1558.59,1.05,-0.7,0.44,6.35,-7.47,0.27,-0.03
1558.73,1.04,-0.71,0.51,6.35,-7.45,0.28,-0.03
1558.86,1.03,-0.7,0.53,6.34,-7.42,0.29,-0.03
1559.0,1.07,-0.66,0.46,6.33,-7.4,0.29,-0.03
1559.14,1.13,-0.59,0.37,6.34,-7.4,0.28,-0.03
1559.28,1.14,-0.54,0.31,6.34,-7.4,0.27,-0.03
1559.41,1.12,-0.55,0.27,6.35,-7.41,0.27,-0.03
1559.55,1.13,-0.62,0.25,6.34,-7.42,0.26,-0.03
1559.69,1.12,-0.67,0.27,6.33,-7.42,0.26,-0.03
1559.83,1.05,-0.66,0.33,6.33,-7.42,0.25,-0.03
1559.96,0.96,-0.65,0.38,6.34,-7.45,0.26,-0.03
1560.1,0.94,-0.65,0.42,6.35,-7.47,0.27,-0.03
1560.24,0.99,-0.67,0.45,6.36,-7.47,0.27,-0.03
1560.38,1.04,-0.7,0.46,6.36,-7.45,0.27,-0.03
1560.51,0.53,-0.95,2.24,6.38,-7.42,0.29,-0.03
1560.65,0.98,1.01,-0.73,6.49,-7.62,0.22,-0.03
1560.79,-0.86,6.16,-9.24,6.87,-7.74,0.18,-0.03
1560.93,-7.84,10.15,-14.08,7.51,-7.1,0.48,-0.02
1561.06,-10.76,4.48,-20.91,8.05,-6.27,0.86,-0.01
1561.2,-7.12,-15.95,-23.57,8.15,-5.76,0.94,-0.01
1561.34,-0.58,-35.09,-10.15,7.81,-5.53,0.69,-0.01
1561.47,9.17,-37.95,11.05,7.18,-5.95,0.33,-0.01
1561.61,15.39,-26.92,26.13,6.5,-7.08,0.14,-0.01
1561.75,22.28,-12.56,37.95,5.88,-8.13,0.12,-0.01
1561.89,37.13,-5.09,43.71,5.18,-8.58,0.24,-0.01
1562.03,44.52,0.89,30.8,4.48,-8.58,0.59,-0.01
1562.16,36.98,7.04,20.55,4.01,-8.59,1.27,-0.01
1562.3,21.12,8.14,24.82,3.72,-8.84,1.96,-0.01
1562.44,5.77,6.58,26.28,3.33,-8.95,2.23,-0.01
1562.57,-1.45,5.26,17.12,2.9,-8.91,2.22,-0.01
1562.71,-1.93,3.05,7.99,2.75,-9.08,2.23,-0.01
1562.85,1.19,1.03,4.48,2.63,-9.37,2.27,-0.01
1562.99,6.33,2.01,4.13,2.18,-9.66,2.38,-0.01
1563.12,9.8,1.56,5.42,1.59,-9.84,2.38,-0.02
1563.26,7.24,-0.91,-1.79,1.05,-9.68,2.13,-0.02
1563.4,1.7,-2.1,-12.97,0.53,-9.54,1.91,-0.02
1563.54,-2.02,-0.24,-12.65,0.33,-9.8,1.89,-0.02
1563.67,-5.37,4.89,-3.48,0.74,-10.34,1.97,-0.02
1563.81,-10.72,3.19,4.84,1.35,-10.88,1.91,-0.02
1563.95,-16.77,-4.55,10.07,1.47,-10.89,1.55,-0.02
1564.09,-17.04,-5.01,9.75,1.16,-10.46,1.17,-0.01
1564.22,-8.2,-0.73,5.45,0.82,-10.09,0.99,-0.02
1564.36,2.14,1.03,1.55,0.65,-9.79,0.97,-0.01
1564.5,6.68,-1.68,-0.71,0.61,-9.57,1.15,-0.01
1564.64,4.89,-6.29,-3.39,0.61,-9.51,1.55,-0.01
1564.77,3.45,-5.8,-3.23,0.54,-9.49,1.85,-0.02
1564.91,5.86,-3.58,6.8,0.32,-9.35,1.88,-0.03
1565.05,4.87,-4.61,16.28,-0.09,-9.26,1.76,-0.03
1565.19,1.58,-5.19,16.02,-0.45,-9.31,1.62,-0.03
1565.32,1.67,-2.83,10.68,-0.64,-9.38,1.51,-0.03
1565.46,2.99,0.17,5.36,-0.74,-9.49,1.46,-0.03
1565.6,3.46,1.37,2.78,-0.82,-9.56,1.41,-0.03
1565.73,2.72,1.4,1.76,-0.88,-9.56,1.37,-0.03
1565.87,0.95,1.21,1.13,-0.82,-9.59,1.34,-0.03
1566.01,-0.9,0.51,1.09,-0.72,-9.62,1.29,-0.03
1566.15,-2.24,-0.78,1.07,-0.64,-9.68,1.22,-0.03
1566.29,-3.3,-1.79,0.11,-0.64,-9.78,1.12,-0.03
1566.42,-4.7,-4.01,-1.63,-0.79,-9.9,0.98,-0.03
1566.56,-6.02,-6.69,-1.98,-0.84,-9.95,0.95,-0.02
1566.7,-5.95,-3.79,-0.1,-0.74,-9.78,1.04,-0.02
1566.83,-2.59,3.21,-2.06,-0.59,-9.69,1.05,-0.02
1566.97,9.7,9.34,-11.75,-0.38,-9.58,1.1,-0.02
1567.11,22.69,11.93,-17.99,0.09,-9.06,1.59,-0.03
1567.25,19.16,11.69,-12.12,0.77,-8.68,2.33,-0.03
1567.39,4.86,12.63,-0.81,1.28,-8.93,2.77,-0.03
1567.52,-11.84,10.51,9.65,1.43,-9.23,2.78,-0.03
1567.66,-27.31,6.89,17.72,1.3,-9.12,2.49,-0.03
1567.8,-32.77,15.52,21.72,1.13,-9.08,2.04,-0.03
1567.94,-28.15,35.23,31.99,0.8,-9.31,1.65,-0.02
1568.07,-22.53,50.42,50.14,-0.12,-9.7,1.35,-0.02
1568.21,-24.66,65.33,47.72,-1.26,-10.04,1.0,-0.02
1568.35,-27.37,91.94,21.73,-1.69,-9.95,0.42,-0.02
1568.48,-14.66,115.22,3.74,-1.22,-9.57,-0.33,-0.02
1568.62,10.4,128.93,-0.58,-0.5,-9.5,-0.65,-0.02
1568.76,25.6,142.89,4.99,-0.16,-9.69,-0.61,-0.02
1568.9,33.1,147.73,26.13,-0.59,-9.6,-0.9,-0.02
1569.03,40.85,135.28,41.07,-1.53,-9.31,-1.08,-0.02
1569.17,35.46,109.85,32.82,-2.16,-9.35,-0.78,-0.02
1569.31,27.24,76.27,15.57,-2.09,-9.47,-0.38,-0.02
1569.45,25.77,38.52,5.56,-1.7,-9.46,0.03,-0.02
1569.58,20.89,7.31,5.66,-1.52,-9.52,0.41,-0.02
1569.72,13.14,-7.93,8.15,-1.62,-9.59,0.67,-0.02
1569.86,7.56,-11.49,8.55,-1.8,-9.56,0.77,-0.02
1570.0,4.69,-10.8,6.28,-1.95,-9.49,0.8,-0.02
1570.13,3.92,-8.46,2.0,-2.09,-9.46,0.88,-0.02
1570.27,4.01,-4.8,-0.03,-2.27,-9.42,1.03,-0.02
1570.41,3.42,-1.16,1.92,-2.46,-9.35,1.24,-0.02
1570.55,2.55,0.27,3.96,-2.66,-9.31,1.4,-0.02
1570.68,2.19,-1.22,3.87,-2.85,-9.27,1.44,-0.02
1570.82,2.67,-4.01,3.34,-2.97,-9.25,1.48,-0.02
1570.96,3.82,-5.63,2.89,-3.05,-9.31,1.55,-0.02
1571.1,3.8,-5.45,1.9,-3.09,-9.36,1.61,-0.02
1571.23,1.77,-4.76,1.34,-3.09,-9.33,1.64,-0.02
1571.37,-0.44,-4.06,0.96,-3.07,-9.24,1.64,-0.02
1571.51,-2.14,-4.35,-0.74,-3.01,-9.14,1.71,-0.02
1571.65,-2.62,-7.49,-0.44,-2.98,-9.13,1.8,-0.02
1571.78,-3.36,-13.72,3.96,-3.05,-9.23,1.79,-0.02
1571.92,-11.71,-30.84,8.18,-3.16,-9.28,1.65,-0.02
1572.06,-23.25,-56.66,7.71,-3.25,-9.19,1.41,-0.02
1572.2,-30.29,-68.91,6.02,-3.31,-9.09,1.16,-0.02
1572.33,-34.07,-59.7,12.53,-3.51,-8.97,1.02,-0.02
1572.47,-32.72,-37.83,27.64,-4.14,-8.66,0.83,-0.02
1572.61,-35.71,-16.99,43.24,-5.1,-8.27,0.48,-0.02
1572.75,-46.9,-12.14,42.31,-5.95,-7.76,0.03,-0.02
1572.88,-54.07,-33.71,16.04,-6.67,-6.91,-0.65,-0.02
1573.02,-60.17,-64.88,-4.95,-7.44,-6.12,-1.12,-0.02
1573.16,-72.38,-64.24,4.55,-8.07,-5.55,-0.96,-0.02
1573.3,-78.15,-18.57,20.56,-8.5,-4.64,-1.02,-0.02
1573.44,-66.32,44.7,21.92,-8.55,-3.37,-2.09,-0.02
1573.57,-45.5,82.81,17.42,-7.85,-2.32,-3.85,-0.02
1573.71,-25.0,69.59,14.08,-6.77,-1.68,-5.45,-0.02
1573.85,-8.0,21.54,8.28,-6.15,-1.39,-6.29,-0.02
1573.98,5.14,-34.29,-8.93,-6.37,-1.45,-6.16,-0.02
1574.12,10.53,-87.46,-29.64,-7.12,-1.91,-5.06,-0.02
1574.26,2.27,-119.72,-41.21,-7.84,-2.66,-3.14,-0.02
1574.4,-12.86,-115.79,-50.87,-8.23,-3.59,-0.95,-0.02
1574.54,-25.87,-82.61,-56.88,-8.4,-4.6,0.96,-0.02
1574.67,-47.45,-25.08,-59.9,-8.3,-5.18,1.8,-0.02
1574.81,-58.61,33.01,-61.59,-7.55,-5.34,1.06,-0.02
1574.95,-43.78,51.77,-45.41,-6.63,-5.74,-0.36,-0.02
1575.09,-35.38,39.97,-18.49,-6.04,-5.9,-1.59,-0.02
1575.22,-26.75,21.37,0.39,-5.85,-5.94,-2.11,-0.02
1575.36,-11.17,2.73,8.2,-6.08,-6.39,-1.95,-0.02
1575.5,9.79,-8.12,1.62,-6.25,-6.79,-1.71,-0.02
1575.64,29.27,-7.72,-8.23,-6.22,-7.19,-1.58,-0.02
1575.77,31.26,-5.18,-11.41,-6.15,-7.07,-1.6,-0.02
1575.91,27.35,-6.51,-8.98,-6.13,-6.88,-1.55,-0.02
1576.05,17.86,-5.82,-0.41,-6.09,-6.99,-1.3,-0.02
1576.19,15.59,-7.72,7.54,-5.97,-7.24,-0.9,-0.02
1576.32,18.86,-10.35,13.27,-5.91,-7.85,-0.39,-0.02
1576.46,19.34,-11.16,11.0,-5.91,-8.11,-0.16,-0.02
1576.6,19.03,-10.21,2.8,-6.06,-8.14,-0.2,-0.02
1576.74,12.34,-4.8,-2.7,-6.2,-7.74,-0.37,-0.02
1576.87,5.98,0.76,-7.43,-6.19,-7.21,-0.51,-0.02
1577.01,-0.4,5.58,-6.01,-6.03,-7.11,-0.55,-0.02
1577.15,-3.68,4.09,0.05,-5.72,-7.24,-0.52,-0.02
1577.29,-18.11,-16.1,8.48,-5.55,-7.42,-0.4,-0.02
1577.42,-43.73,-47.7,18.21,-5.88,-6.9,-0.21,-0.02
1577.56,-48.3,-57.28,18.71,-6.77,-6.1,0.1,-0.02
1577.7,-32.77,-40.94,10.99,-7.47,-6.03,0.4,-0.02
1577.84,-14.85,-21.26,4.22,-7.56,-6.39,0.64,-0.02
1577.97,-2.25,-6.98,0.54,-7.39,-6.66,0.81,-0.02
1578.11,3.09,0.12,-1.07,-7.2,-6.76,0.87,-0.02
1578.25,3.69,2.14,-1.0,-7.04,-6.82,0.83,-0.02
1578.39,2.78,1.81,-0.2,-6.99,-6.84,0.77,-0.02
1578.52,1.93,0.6,0.03,-6.97,-6.83,0.73,-0.02
1578.66,1.31,-0.26,-0.53,-6.91,-6.84,0.7,-0.02
1578.8,0.83,-0.66,-1.44,-6.87,-6.85,0.69,-0.02
1578.94,0.67,-0.61,-2.15,-6.85,-6.86,0.71,-0.02
1579.07,0.63,-0.11,-1.33,-6.81,-6.86,0.73,-0.02
1579.21,0.45,-0.03,-0.04,-6.81,-6.83,0.7,-0.02
1579.35,0.92,-0.34,-1.63,-6.81,-6.83,0.66,-0.02
1579.49,1.21,-0.28,-3.81,-6.69,-7.02,0.64,-0.02
1579.62,-0.24,-0.6,-2.42,-6.48,-7.32,0.61,-0.02
1579.76,-1.39,-1.28,0.07,-6.34,-7.46,0.59,-0.02
1579.9,-0.46,-1.69,0.78,-6.34,-7.45,0.62,-0.02
1580.04,2.39,-0.81,-1.3,-6.44,-7.38,0.67,-0.02
1580.17,7.02,5.01,-6.67,-6.65,-7.24,0.7,-0.02
1580.31,15.52,20.81,-12.49,-6.86,-7.11,0.75,-0.02
1580.45,29.95,46.52,-16.41,-6.76,-6.99,0.76,-0.02
1580.58,47.83,77.24,-20.79,-6.05,-7.14,0.63,-0.02
1580.72,57.75,96.08,-24.53,-4.81,-7.68,0.5,-0.02
1580.86,48.32,78.87,-23.63,-3.89,-8.26,0.64,-0.02
1581.0,27.95,35.21,-23.9,-3.88,-8.77,1.15,-0.02
1581.14,12.21,-1.46,-26.19,-4.13,-9.14,1.72,-0.02
1581.27,2.5,-17.98,-22.92,-3.98,-9.26,2.14,-0.02
1581.41,-5.0,-19.9,-17.54,-3.6,-9.58,2.34,-0.02
1581.55,-7.88,-17.13,-18.29,-3.22,-10.12,2.25,-0.02
1581.69,-6.84,-17.03,-21.77,-2.65,-10.07,1.89,-0.02
1581.82,-3.34,-17.03,-21.21,-1.94,-9.4,1.47,-0.02
1581.96,2.23,-12.0,-20.5,-1.39,-8.81,1.4,-0.01
1582.1,2.58,-5.14,-20.34,-1.13,-8.67,1.55,-0.02
1582.23,-2.58,-2.46,-18.85,-0.98,-8.9,1.6,-0.02
1582.37,-6.28,-2.26,-30.11,-0.56,-9.2,1.45,-0.02
1582.51,-6.7,2.3,-59.59,0.51,-9.3,1.24,-0.02
1582.65,-6.04,7.97,-75.69,2.22,-9.25,0.99,-0.03
1582.79,-5.1,9.18,-64.68,3.75,-9.17,0.69,-0.03
1582.92,-3.42,9.39,-54.02,4.64,-8.99,0.47,-0.03
1583.06,-1.73,9.21,-48.62,5.15,-8.68,0.4,-0.03
1583.2,-0.86,8.48,-42.69,5.5,-8.28,0.4,-0.03
1583.33,-0.73,8.87,-39.34,5.87,-7.82,0.43,-0.03
1583.47,-0.69,7.13,-28.59,6.27,-7.36,0.53,-0.03
1583.61,-0.34,2.92,-12.56,6.57,-7.06,0.61,-0.03
1583.75,0.22,-0.42,-2.01,6.69,-6.99,0.6,-0.03
1583.89,0.94,-1.54,1.33,6.66,-7.06,0.53,-0.02
1584.02,1.71,-1.0,-0.35,6.61,-7.18,0.47,-0.02
1584.16,1.94,-0.46,-1.83,6.55,-7.27,0.44,-0.02
1584.3,1.5,-0.47,-0.94,6.48,-7.33,0.42,-0.02
1584.44,0.98,-0.63,0.5,6.45,-7.36,0.39,-0.02
1584.57,0.75,-0.66,1.08,6.44,-7.38,0.38,-0.02
1584.71,0.74,-0.62,1.01,6.45,-7.38,0.4,-0.02
1584.85,0.81,-0.62,0.78,6.47,-7.39,0.41,-0.02
1584.98,0.89,-0.63,0.63,6.49,-7.38,0.4,-0.02
1585.12,0.98,-0.64,0.56,6.5,-7.36,0.38,-0.02
1585.26,1.04,-0.63,0.52,6.49,-7.33,0.38,-0.02
1585.4,1.06,-0.62,0.49,6.47,-7.32,0.39,-0.02
1585.53,1.06,-0.67,0.47,6.47,-7.33,0.39,-0.02
1585.67,1.09,-0.75,0.46,6.48,-7.34,0.41,-0.02
1585.81,1.12,-0.77,0.47,6.48,-7.35,0.41,-0.02
1585.95,1.13,-0.73,0.48,6.47,-7.36,0.4,-0.02
1586.08,1.11,-0.67,0.43,6.45,-7.37,0.39,-0.02
1586.22,1.12,-0.62,0.39,6.43,-7.38,0.39,-0.02
1586.36,1.13,-0.58,0.4,6.43,-7.38,0.39,-0.02
1586.5,1.09,-0.56,0.44,6.43,-7.37,0.39,-0.02
1586.63,1.02,-0.57,0.45,6.44,-7.36,0.41,-0.02
1586.77,0.99,-0.59,0.45,6.45,-7.35,0.42,-0.02
1586.91,1.0,-0.59,0.42,6.47,-7.35,0.42,-0.02
1587.05,1.07,-0.58,0.39,6.48,-7.34,0.4,-0.02
1587.18,1.17,-0.61,0.36,6.49,-7.33,0.38,-0.02
1587.32,1.21,-0.66,0.35,6.49,-7.33,0.39,-0.02
1587.46,1.18,-0.71,0.34,6.47,-7.32,0.4,-0.02
1587.6,1.13,-0.7,0.34,6.45,-7.31,0.39,-0.02
1587.73,1.08,-0.66,0.35,6.45,-7.31,0.38,-0.02
1587.87,1.03,-0.64,0.35,6.45,-7.33,0.4,-0.02
1588.01,0.99,-0.65,0.37,6.45,-7.35,0.42,-0.02
1588.15,0.99,-0.65,0.4,6.45,-7.35,0.41,-0.02
1588.28,1.02,-0.65,0.4,6.45,-7.33,0.38,-0.02
1588.42,1.04,-0.63,0.4,6.45,-7.33,0.38,-0.02
1588.56,1.06,-0.62,0.44,6.46,-7.34,0.4,-0.02
1588.69,1.06,-0.62,0.46,6.47,-7.34,0.4,-0.02
1588.83,1.08,-0.61,0.43,6.48,-7.34,0.4,-0.02
1588.97,1.13,-0.56,0.39,6.48,-7.35,0.39,-0.02
1589.11,1.16,-0.51,0.36,6.46,-7.36,0.39,-0.02
1589.24,1.16,-0.54,0.35,6.44,-7.37,0.39,-0.02
1589.38,1.14,-0.6,0.36,6.44,-7.36,0.38,-0.02
1589.52,1.11,-0.66,0.41,6.45,-7.35,0.39,-0.02
1589.66,1.06,-0.69,0.46,6.47,-7.35,0.4,-0.02
1589.79,1.03,-0.68,0.46,6.47,-7.37,0.39,-0.02
1589.93,1.04,-0.67,0.43,6.48,-7.37,0.4,-0.02
1590.07,1.07,-0.69,0.41,6.47,-7.36,0.41,-0.02
1590.21,1.06,-0.7,0.42,6.45,-7.36,0.42,-0.02
1590.34,1.04,-0.69,0.43,6.44,-7.35,0.4,-0.02
1590.48,1.02,-0.68,0.41,6.45,-7.35,0.38,-0.02
1590.62,1.05,-0.66,0.39,6.46,-7.35,0.37,-0.02
1590.76,1.11,-0.64,0.38,6.47,-7.36,0.4,-0.02
1590.89,1.11,-0.65,0.4,6.47,-7.36,0.41,-0.02
1591.03,1.06,-0.67,0.46,6.48,-7.36,0.42,-0.02
1591.17,1.03,-0.67,0.53,6.49,-7.36,0.43,-0.02
1591.31,1.06,-0.65,0.54,6.49,-7.36,0.43,-0.02
1591.44,1.1,-0.66,0.5,6.48,-7.37,0.43,-0.02
1591.58,1.14,-0.67,0.49,6.46,-7.36,0.43,-0.02
1591.72,1.16,-0.66,0.45,6.45,-7.35,0.41,-0.02
1591.86,1.14,-0.63,0.41,6.45,-7.34,0.39,-0.02
1591.99,1.12,-0.61,0.41,6.45,-7.35,0.38,-0.02
1592.13,1.13,-0.62,0.42,6.46,-7.36,0.37,-0.02
1592.27,1.17,-0.62,0.46,6.47,-7.36,0.39,-0.02
1592.41,1.15,-0.62,0.49,6.48,-7.35,0.41,-0.02
1592.54,1.07,-0.64,0.48,6.49,-7.35,0.4,-0.02
1592.68,1.02,-0.66,0.43,6.5,-7.34,0.37,-0.02
1592.82,1.01,-0.68,0.38,6.5,-7.34,0.36,-0.02
1592.96,1.03,-0.71,0.33,6.48,-7.33,0.37,-0.02
1593.09,1.06,-0.72,0.3,6.46,-7.32,0.38,-0.02
1593.23,1.05,-0.7,0.33,6.45,-7.31,0.39,-0.02
1593.37,1.03,-0.69,0.36,6.45,-7.32,0.38,-0.02
1593.51,1.03,-0.67,0.36,6.45,-7.34,0.38,-0.02
1593.64,1.02,-0.61,0.33,6.45,-7.34,0.38,-0.02
1593.78,1.02,-0.55,0.32,6.45,-7.35,0.37,-0.02
1593.92,1.07,-0.54,0.36,6.46,-7.35,0.36,-0.02
1594.06,1.1,-0.58,0.4,6.46,-7.36,0.36,-0.02
1594.19,1.09,-0.66,0.43,6.46,-7.35,0.38,-0.02
1594.33,1.06,-0.72,0.44,6.46,-7.35,0.39,-0.02
1594.47,1.01,-0.69,0.39,6.46,-7.34,0.37,-0.02
1594.6,0.98,-0.66,0.34,6.46,-7.32,0.34,-0.02
1594.74,0.99,-0.66,0.35,6.47,-7.31,0.32,-0.02
1594.88,1.04,-0.69,0.4,6.48,-7.31,0.32,-0.02
1595.02,1.1,-0.67,0.44,6.48,-7.33,0.35,-0.02
1595.16,1.13,-0.61,0.42,6.48,-7.34,0.38,-0.02
1595.29,1.15,-0.58,0.36,6.48,-7.34,0.4,-0.02
1595.43,1.13,-0.61,0.33,6.48,-7.34,0.4,-0.02
1595.57,1.09,-0.67,0.32,6.47,-7.34,0.4,-0.02
1595.7,1.09,-0.69,0.32,6.47,-7.35,0.39,-0.02
1595.84,1.09,-0.68,0.35,6.46,-7.36,0.37,-0.02
1595.98,1.02,-0.65,0.42,6.46,-7.36,0.35,-0.02
1596.12,0.93,-0.61,0.49,6.46,-7.36,0.34,-0.02
1596.25,0.91,-0.6,0.53,6.46,-7.35,0.35,-0.02
1596.39,0.95,-0.64,0.54,6.44,-7.33,0.36,-0.02
1596.53,1.0,-0.7,0.48,6.42,-7.32,0.37,-0.02
1596.67,1.04,-0.73,0.38,6.43,-7.32,0.37,-0.02
1596.8,1.08,-0.7,0.31,6.45,-7.33,0.38,-0.02
1596.94,1.12,-0.68,0.27,6.47,-7.35,0.38,-0.02
1597.08,1.13,-0.65,0.21,6.49,-7.36,0.4,-0.02
1597.22,1.12,-0.62,0.22,6.5,-7.35,0.42,-0.02
1597.35,1.13,-0.62,0.3,6.49,-7.35,0.43,-0.02
1597.49,1.12,-0.61,0.34,6.48,-7.35,0.41,-0.02
1597.63,1.07,-0.59,0.35,6.47,-7.35,0.38,-0.02
1597.77,1.05,-0.57,0.37,6.47,-7.35,0.38,-0.02
1597.9,1.04,-0.55,0.42,6.45,-7.35,0.4,-0.02
1598.04,1.03,-0.57,0.47,6.44,-7.35,0.42,-0.02
1598.18,1.04,-0.62,0.5,6.44,-7.34,0.41,-0.02
1598.32,1.05,-0.67,0.47,6.45,-7.33,0.39,-0.02
1598.45,1.08,-0.67,0.42,6.45,-7.34,0.39,-0.02
1598.59,1.11,-0.66,0.39,6.45,-7.36,0.38,-0.02
1598.73,1.1,-0.67,0.41,6.45,-7.38,0.37,-0.02
1598.86,1.09,-0.69,0.42,6.46,-7.39,0.38,-0.02
1599.0,1.11,-0.67,0.41,6.47,-7.38,0.41,-0.02
1599.14,1.13,-0.65,0.43,6.48,-7.38,0.43,-0.02
1599.28,1.11,-0.64,0.46,6.48,-7.37,0.42,-0.02
1599.42,1.08,-0.65,0.48,6.49,-7.36,0.4,-0.02
1599.55,1.09,-0.69,0.47,6.48,-7.34,0.4,-0.02
1599.69,1.13,-0.71,0.47,6.46,-7.34,0.43,-0.02
1599.83,1.15,-0.71,0.48,6.44,-7.33,0.44,-0.02
1599.96,1.12,-0.67,0.48,6.44,-7.33,0.4,-0.02
1600.1,1.11,-0.64,0.51,6.46,-7.31,0.36,-0.02
1600.24,1.11,-0.65,0.55,6.47,-7.3,0.35,-0.02
1600.38,1.1,-0.69,0.53,6.45,-7.31,0.36,-0.02
1600.51,1.08,-0.7,0.47,6.45,-7.32,0.4,-0.02
1600.65,1.04,-0.66,0.42,6.46,-7.34,0.44,-0.02
1600.79,1.03,-0.62,0.34,6.46,-7.34,0.44,-0.02
1600.93,1.06,-0.61,0.25,6.47,-7.33,0.41,-0.02
1601.06,1.1,-0.62,0.24,6.46,-7.34,0.38,-0.02
1601.2,1.12,-0.64,0.28,6.46,-7.35,0.36,-0.02
1601.34,1.1,-0.64,0.33,6.45,-7.36,0.35,-0.02
1601.48,1.08,-0.64,0.43,6.45,-7.36,0.35,-0.02
1601.61,1.06,-0.65,0.48,6.45,-7.35,0.35,-0.02
1601.75,1.02,-0.67,0.43,6.47,-7.34,0.36,-0.02
1601.89,1.01,-0.68,0.36,6.49,-7.33,0.37,-0.02
1602.03,1.03,-0.7,0.31,6.49,-7.32,0.37,-0.02
1602.16,1.05,-0.74,0.32,6.48,-7.32,0.37,-0.02
1602.3,1.03,-0.77,0.37,6.47,-7.32,0.39,-0.02
1602.44,0.98,-0.76,0.4,6.46,-7.33,0.4,-0.02
1602.57,0.97,-0.75,0.42,6.46,-7.34,0.41,-0.02
1602.71,1.04,-0.72,0.44,6.47,-7.35,0.42,-0.02
1602.85,1.11,-0.69,0.46,6.47,-7.36,0.42,-0.02
1602.99,1.1,-0.64,0.46,6.47,-7.36,0.42,-0.02
1603.13,1.07,-0.58,0.46,6.46,-7.34,0.39,-0.02
1603.26,1.05,-0.56,0.47,6.45,-7.33,0.37,-0.02
1603.4,1.06,-0.57,0.48,6.45,-7.32,0.35,-0.02
1603.54,1.06,-0.59,0.47,6.45,-7.33,0.36,-0.02
1603.67,1.03,-0.65,0.48,6.46,-7.34,0.38,-0.02
1603.81,1.0,-0.67,0.49,6.47,-7.34,0.4,-0.02
1603.95,1.02,-0.64,0.49,6.48,-7.35,0.4,-0.02
1604.09,1.04,-0.59,0.48,6.49,-7.35,0.39,-0.02
1604.22,1.04,-0.59,0.43,6.51,-7.36,0.39,-0.02
1604.36,1.08,-0.64,0.39,6.5,-7.38,0.4,-0.02
1604.5,1.12,-0.68,0.41,6.5,-7.35,0.4,-0.02
1604.64,1.11,-0.74,0.49,6.51,-7.3,0.39,-0.02
1604.77,1.09,-0.81,0.55,6.5,-7.28,0.38,-0.02
1604.91,1.1,-0.82,0.55,6.46,-7.31,0.39,-0.02
1605.05,1.09,-0.79,0.52,6.42,-7.37,0.4,-0.02
1605.19,1.08,-0.74,0.47,6.4,-7.39,0.38,-0.02
1605.32,1.06,-0.67,0.42,6.41,-7.39,0.36,-0.02
1605.46,1.03,-0.65,0.41,6.43,-7.38,0.37,-0.02
1605.6,1.07,-0.65,0.47,6.45,-7.37,0.38,-0.02
1605.73,1.14,-0.62,0.5,6.46,-7.36,0.38,-0.02
1605.87,1.17,-0.58,0.46,6.47,-7.34,0.37,-0.02
1606.01,1.15,-0.55,0.38,6.46,-7.32,0.36,-0.02
1606.15,1.08,-0.56,0.33,6.44,-7.32,0.36,-0.02
1606.28,1.01,-0.61,0.34,6.43,-7.32,0.37,-0.02
1606.42,0.99,-0.62,0.38,6.44,-7.33,0.38,-0.02
1606.56,1.05,-0.6,0.43,6.44,-7.34,0.37,-0.02
1606.7,1.11,-0.57,0.45,6.45,-7.36,0.36,-0.02
1606.83,1.1,-0.56,0.43,6.46,-7.37,0.37,-0.02
1606.97,1.06,-0.57,0.39,6.47,-7.38,0.35,-0.02
1607.11,1.04,-0.59,0.38,6.46,-7.37,0.34,-0.02
1607.25,1.05,-0.62,0.42,6.46,-7.35,0.35,-0.02
1607.38,1.06,-0.65,0.46,6.46,-7.34,0.36,-0.02
1607.52,1.06,-0.65,0.45,6.46,-7.34,0.38,-0.02
1607.66,1.08,-0.61,0.45,6.45,-7.35,0.4,-0.02
1607.8,1.12,-0.58,0.44,6.46,-7.36,0.41,-0.02
1607.93,1.12,-0.6,0.4,6.47,-7.38,0.43,-0.02
1608.07,1.06,-0.68,0.34,6.48,-7.38,0.44,-0.02
1608.21,1.02,-0.72,0.31,6.49,-7.38,0.43,-0.02
1608.34,1.04,-0.72,0.29,6.48,-7.37,0.42,-0.02
1608.48,1.07,-0.7,0.32,6.46,-7.36,0.41,-0.02
1608.62,1.08,-0.66,0.4,6.45,-7.35,0.39,-0.02
1608.76,1.07,-0.66,0.44,6.44,-7.35,0.38,-0.02
1608.9,1.07,-0.66,0.44,6.45,-7.34,0.39,-0.02
1609.03,1.08,-0.65,0.42,6.47,-7.33,0.39,-0.02
1609.17,1.11,-0.67,0.42,6.48,-7.33,0.38,-0.02
1609.31,1.14,-0.73,0.43,6.48,-7.34,0.38,-0.02
1609.44,1.15,-0.75,0.43,6.48,-7.34,0.39,-0.02
1609.58,1.14,-0.7,0.44,6.48,-7.33,0.4,-0.02
1609.72,1.1,-0.67,0.47,6.47,-7.32,0.41,-0.02
1609.86,1.06,-0.67,0.5,6.45,-7.32,0.41,-0.02
1609.99,1.06,-0.68,0.5,6.44,-7.34,0.41,-0.02
1610.13,1.07,-0.69,0.4,6.43,-7.36,0.42,-0.02
1610.27,1.06,-0.72,0.27,6.44,-7.36,0.41,-0.02
1610.41,1.02,-0.74,0.22,6.44,-7.33,0.39,-0.02
1610.54,1.01,-0.76,0.26,6.45,-7.3,0.37,-0.02
1610.68,1.02,-0.75,0.32,6.46,-7.3,0.37,-0.02
1610.82,1.06,-0.72,0.36,6.46,-7.32,0.38,-0.02
1610.96,1.09,-0.7,0.38,6.47,-7.35,0.39,-0.02
1611.09,1.06,-0.69,0.41,6.47,-7.36,0.39,-0.02
1611.23,1.02,-0.66,0.45,6.45,-7.35,0.4,-0.02
1611.37,1.0,-0.63,0.42,6.43,-7.34,0.39,-0.02
1611.51,1.01,-0.64,0.38,6.43,-7.33,0.39,-0.02
1611.64,1.02,-0.68,0.39,6.45,-7.34,0.38,-0.02
1611.78,1.05,-0.68,0.45,6.46,-7.35,0.39,-0.02
1611.92,1.05,-0.66,0.5,6.45,-7.34,0.4,-0.02
1612.06,1.06,-0.61,0.5,6.46,-7.33,0.41,-0.02
1612.19,1.09,-0.57,0.48,6.47,-7.33,0.41,-0.02
1612.33,1.11,-0.54,0.48,6.46,-7.33,0.42,-0.02
1612.47,1.08,-0.57,0.49,6.46,-7.34,0.42,-0.02
1612.6,1.06,-0.63,0.49,6.48,-7.34,0.4,-0.02
1612.74,1.05,-0.69,0.5,6.48,-7.34,0.37,-0.02
1612.88,1.04,-0.74,0.5,6.48,-7.35,0.35,-0.02
1613.02,1.04,-0.74,0.46,6.46,-7.35,0.35,-0.02
1613.16,1.07,-0.7,0.42,6.46,-7.36,0.37,-0.02
1613.29,1.13,-0.66,0.43,6.45,-7.37,0.37,-0.02
1613.43,1.16,-0.65,0.44,6.44,-7.37,0.37,-0.02
1613.57,1.17,-0.65,0.45,6.43,-7.37,0.36,-0.02
1613.7,1.15,-0.65,0.48,6.44,-7.36,0.36,-0.02
1613.84,1.11,-0.61,0.45,6.43,-7.35,0.38,-0.02
1613.98,1.07,-0.59,0.4,6.43,-7.33,0.41,-0.02
1614.12,1.02,-0.59,0.4,6.42,-7.32,0.42,-0.02
1614.25,0.99,-0.63,0.44,6.42,-7.33,0.41,-0.02
1614.39,0.95,-0.68,0.46,6.44,-7.37,0.4,-0.02
1614.53,0.93,-0.68,0.48,6.46,-7.37,0.39,-0.02
1614.67,0.95,-0.65,0.54,6.47,-7.35,0.4,-0.02
1614.8,1.01,-0.65,0.58,6.47,-7.33,0.42,-0.02
1614.94,1.07,-0.61,0.54,6.45,-7.33,0.41,-0.02
1615.08,1.09,-0.57,0.44,6.45,-7.33,0.39,-0.02
1615.22,1.08,-0.58,0.34,6.44,-7.35,0.39,-0.02
1615.35,1.07,-0.63,0.31,6.45,-7.35,0.41,-0.02
1615.49,1.06,-0.65,0.34,6.45,-7.34,0.42,-0.02
1615.63,1.06,-0.64,0.41,6.45,-7.33,0.42,-0.02
1615.77,1.06,-0.63,0.46,6.45,-7.32,0.4,-0.02
1615.9,1.05,-0.64,0.46,6.47,-7.33,0.41,-0.02
1616.04,1.04,-0.63,0.45,6.48,-7.34,0.43,-0.02
1616.18,1.03,-0.59,0.44,6.47,-7.35,0.43,-0.02
1616.31,1.01,-0.57,0.42,6.47,-7.36,0.41,-0.02
1616.45,0.98,-0.6,0.43,6.46,-7.36,0.39,-0.02
1616.59,0.97,-0.67,0.44,6.46,-7.35,0.39,-0.02
1616.73,0.98,-0.7,0.46,6.44,-7.34,0.4,-0.02
1616.86,1.02,-0.66,0.49,6.43,-7.33,0.42,-0.02
1617.0,1.07,-0.65,0.51,6.43,-7.32,0.42,-0.02
1617.14,1.09,-0.66,0.53,6.44,-7.31,0.4,-0.02
1617.28,1.08,-0.65,0.54,6.45,-7.32,0.38,-0.02
1617.42,1.07,-0.64,0.52,6.46,-7.34,0.39,-0.02
1617.55,1.03,-0.64,0.5,6.47,-7.36,0.41,-0.02
1617.69,1.02,-0.63,0.49,6.46,-7.37,0.4,-0.02
1617.83,1.07,-0.62,0.48,6.47,-7.37,0.39,-0.02
1617.96,1.14,-0.61,0.46,6.48,-7.37,0.38,-0.02
1618.1,1.16,-0.64,0.43,6.47,-7.37,0.39,-0.02
1618.24,1.14,-0.65,0.4,6.47,-7.37,0.42,-0.02
1618.38,1.11,-0.62,0.37,6.47,-7.37,0.43,-0.02
1618.51,1.07,-0.59,0.35,6.46,-7.36,0.43,-0.02
1618.65,1.04,-0.62,0.34,6.45,-7.35,0.43,-0.02
1618.79,1.06,-0.64,0.31,6.46,-7.35,0.42,-0.02
1618.93,1.1,-0.65,0.32,6.48,-7.35,0.41,-0.02
1619.06,1.11,-0.65,0.35,6.47,-7.36,0.4,-0.02
1619.2,1.06,-0.65,0.39,6.45,-7.36,0.39,-0.02
1619.34,1.01,-0.65,0.4,6.43,-7.34,0.39,-0.02
1619.48,1.02,-0.65,0.38,6.43,-7.35,0.38,-0.02
1619.61,1.04,-0.6,0.34,6.45,-7.35,0.39,-0.02
1619.75,1.04,-0.57,0.32,6.47,-7.3,0.39,-0.02
1619.89,1.03,-0.64,0.33,6.47,-7.27,0.38,-0.02
1620.03,1.03,-0.68,0.39,6.47,-7.27,0.38,-0.02
1620.16,1.04,-0.68,0.46,6.47,-7.28,0.37,-0.02
1620.3,1.05,-0.68,0.46,6.46,-7.32,0.36,-0.02
1620.44,1.06,-0.66,0.43,6.44,-7.37,0.38,-0.02
1620.57,1.08,-0.64,0.42,6.43,-7.39,0.4,-0.02
1620.71,1.09,-0.63,0.44,6.43,-7.35,0.4,-0.02
1620.85,1.11,-0.63,0.47,6.43,-7.29,0.38,-0.02
1620.99,1.13,-0.61,0.48,6.44,-7.29,0.37,-0.02
1621.13,1.08,-0.57,0.45,6.43,-7.31,0.38,-0.02
1621.26,1.01,-0.57,0.41,6.43,-7.32,0.37,-0.02
1621.4,1.02,-0.6,0.39,6.43,-7.33,0.37,-0.02
1621.54,1.08,-0.62,0.38,6.43,-7.33,0.38,-0.02
1621.67,1.1,-0.62,0.36,6.44,-7.31,0.37,-0.02
1621.81,1.08,-0.6,0.36,6.49,-7.25,0.34,-0.02
1621.95,1.07,-0.53,0.35,6.51,-7.19,0.32,-0.02
1622.09,1.11,-0.49,0.31,6.51,-7.19,0.33,-0.02
1622.22,1.14,-0.52,0.3,6.5,-7.26,0.35,-0.02
1622.36,1.13,-0.55,0.38,6.49,-7.34,0.37,-0.02
1622.5,1.08,-0.56,0.49,6.48,-7.38,0.39,-0.02
1622.64,1.04,-0.58,0.52,6.47,-7.38,0.4,-0.02
1622.77,1.02,-0.57,0.47,6.47,-7.37,0.42,-0.02
1622.91,1.04,-0.57,0.45,6.48,-7.36,0.42,-0.02
1623.05,1.06,-0.6,0.44,6.47,-7.36,0.41,-0.02
1623.19,1.08,-0.6,0.4,6.47,-7.35,0.39,-0.02
1623.32,1.11,-0.6,0.37,6.47,-7.37,0.39,-0.02
1623.46,1.13,-0.61,0.41,6.47,-7.4,0.4,-0.02
1623.6,1.1,-0.64,0.48,6.46,-7.39,0.39,-0.02
1623.74,1.04,-0.65,0.5,6.46,-7.37,0.39,-0.02
1623.87,1.01,-0.64,0.47,6.47,-7.36,0.39,-0.02
1624.01,1.02,-0.63,0.4,6.48,-7.36,0.4,-0.02
1624.15,1.06,-0.66,0.34,6.47,-7.35,0.41,-0.02
1624.29,1.11,-0.71,0.33,6.48,-7.34,0.4,-0.02
1624.42,1.13,-0.72,0.38,6.48,-7.34,0.39,-0.02
1624.56,1.12,-0.7,0.44,6.47,-7.33,0.39,-0.02
1624.7,1.11,-0.7,0.47,6.46,-7.31,0.39,-0.02
1624.83,1.1,-0.71,0.47,6.44,-7.31,0.4,-0.02
1624.97,1.09,-0.71,0.47,6.43,-7.32,0.41,-0.02
1625.11,1.07,-0.68,0.44,6.45,-7.33,0.41,-0.02
1625.25,1.02,-0.63,0.38,6.46,-7.36,0.39,-0.02
1625.39,0.97,-0.61,0.33,6.48,-7.37,0.4,-0.02
1625.52,0.97,-0.6,0.29,6.48,-7.37,0.4,-0.02
1625.66,1.02,-0.64,0.26,6.47,-7.37,0.38,-0.02
1625.8,1.07,-0.69,0.27,6.47,-7.35,0.35,-0.02
1625.94,1.1,-0.71,0.35,6.47,-7.33,0.33,-0.02
1626.07,1.09,-0.72,0.45,6.46,-7.32,0.35,-0.02
1626.21,1.06,-0.7,0.54,6.45,-7.33,0.38,-0.02
1626.35,1.04,-0.71,0.62,6.45,-7.35,0.4,-0.02
1626.48,1.02,-0.72,0.66,6.45,-7.36,0.4,-0.02
1626.62,1.02,-0.72,0.65,6.45,-7.37,0.41,-0.02
1626.76,1.04,-0.71,0.56,6.46,-7.38,0.39,-0.02
1626.9,1.07,-0.68,0.47,6.47,-7.39,0.37,-0.02
1627.03,1.08,-0.66,0.42,6.47,-7.4,0.35,-0.02
1627.17,1.08,-0.66,0.38,6.46,-7.41,0.34,-0.02
1627.31,1.07,-0.67,0.36,6.46,-7.41,0.35,-0.02
1627.45,1.04,-0.66,0.35,6.46,-7.39,0.37,-0.02
1627.58,1.02,-0.66,0.37,6.47,-7.36,0.38,-0.02
1627.72,1.04,-0.68,0.41,6.47,-7.34,0.38,-0.02
1627.86,1.06,-0.7,0.44,6.47,-7.32,0.37,-0.02
1628.0,1.05,-0.7,0.46,6.47,-7.33,0.38,-0.02
1628.13,1.04,-0.68,0.46,6.48,-7.33,0.38,-0.02
1628.27,1.02,-0.64,0.45,6.49,-7.33,0.38,-0.02
1628.41,1.02,-0.6,0.46,6.48,-7.33,0.39,-0.02
1628.55,1.03,-0.59,0.47,6.48,-7.33,0.4,-0.02
1628.68,1.07,-0.6,0.47,6.48,-7.34,0.4,-0.02
1628.82,1.1,-0.59,0.45,6.48,-7.35,0.39,-0.02
1628.96,1.1,-0.58,0.45,6.48,-7.34,0.38,-0.02
1629.1,1.1,-0.58,0.46,6.48,-7.34,0.38,-0.02
1629.23,1.09,-0.59,0.45,6.47,-7.36,0.37,-0.02
1629.37,1.06,-0.6,0.44,6.47,-7.39,0.35,-0.02
1629.51,1.03,-0.61,0.47,6.47,-7.38,0.34,-0.02
1629.65,1.05,-0.66,0.48,6.47,-7.37,0.36,-0.02
1629.78,1.07,-0.69,0.39,6.47,-7.36,0.39,-0.02
1629.92,1.09,-0.64,0.26,6.47,-7.35,0.4,-0.02
1630.06,1.11,-0.56,0.2,6.46,-7.33,0.41,-0.02
1630.19,1.12,-0.51,0.18,6.45,-7.34,0.41,-0.02
1630.33,1.09,-0.51,0.23,6.45,-7.35,0.41,-0.02
1630.47,1.04,-0.54,0.38,6.44,-7.36,0.4,-0.02
1630.61,1.02,-0.59,0.52,6.44,-7.36,0.4,-0.02
1630.74,1.04,-0.66,0.51,6.45,-7.34,0.4,-0.02
1630.88,1.06,-0.69,0.38,6.47,-7.34,0.4,-0.02
1631.02,1.06,-0.63,0.21,6.48,-7.36,0.39,-0.02
1631.16,1.08,-0.58,0.07,6.48,-7.38,0.38,-0.02
1631.3,1.09,-0.57,0.07,6.46,-7.38,0.37,-0.02
1631.43,1.08,-0.58,0.22,6.43,-7.36,0.37,-0.02
1631.57,1.03,-0.62,0.41,6.43,-7.36,0.41,-0.02
1631.71,0.97,-0.67,0.55,6.44,-7.37,0.44,-0.02
1631.84,0.94,-0.68,0.58,6.46,-7.37,0.43,-0.02
1631.98,0.94,-0.68,0.55,6.47,-7.36,0.42,-0.02
1632.12,0.95,-0.68,0.47,6.48,-7.35,0.41,-0.02
1632.26,0.99,-0.66,0.37,6.49,-7.34,0.41,-0.02
1632.39,1.04,-0.62,0.31,6.49,-7.35,0.4,-0.02
1632.53,1.08,-0.58,0.32,6.49,-7.36,0.4,-0.02
1632.67,1.09,-0.58,0.42,6.48,-7.37,0.4,-0.02
1632.81,1.05,-0.61,0.51,6.47,-7.37,0.41,-0.02
1632.94,1.01,-0.61,0.5,6.46,-7.35,0.42,-0.02
1633.08,1.01,-0.59,0.43,6.46,-7.34,0.43,-0.02
1633.22,1.03,-0.57,0.37,6.47,-7.34,0.41,-0.02
1633.36,1.04,-0.62,0.35,6.48,-7.35,0.38,-0.02
1633.49,1.05,-0.7,0.35,6.48,-7.35,0.36,-0.02
1633.63,1.07,-0.72,0.38,6.46,-7.37,0.35,-0.02
1633.77,1.09,-0.69,0.42,6.43,-7.38,0.34,-0.02
1633.91,1.08,-0.65,0.41,6.41,-7.37,0.34,-0.02
1634.04,1.03,-0.63,0.41,6.42,-7.35,0.34,-0.02
1634.18,0.97,-0.64,0.41,6.45,-7.33,0.35,-0.02
1634.32,0.96,-0.64,0.42,6.47,-7.31,0.37,-0.02
1634.45,1.0,-0.61,0.45,6.49,-7.31,0.37,-0.02
1634.59,1.02,-0.59,0.49,6.48,-7.32,0.36,-0.02
1634.73,1.0,-0.6,0.49,6.47,-7.32,0.36,-0.02
1634.87,1.01,-0.64,0.44,6.45,-7.34,0.37,-0.02
1635.01,1.08,-0.67,0.42,6.43,-7.35,0.39,-0.02
1635.14,1.13,-0.68,0.45,6.42,-7.36,0.41,-0.02
1635.28,1.11,-0.7,0.48,6.43,-7.34,0.41,-0.02
1635.42,1.1,-0.71,0.48,6.45,-7.35,0.41,-0.02
1635.56,1.07,-0.73,0.43,6.46,-7.36,0.42,-0.02
1635.69,1.04,-0.76,0.37,6.45,-7.38,0.41,-0.02
1635.83,1.02,-0.76,0.36,6.44,-7.38,0.4,-0.02
1635.97,1.01,-0.71,0.38,6.44,-7.38,0.39,-0.02
1636.1,1.01,-0.65,0.39,6.44,-7.37,0.39,-0.02
1636.24,0.98,-0.63,0.38,6.43,-7.35,0.38,-0.02
1636.38,0.97,-0.63,0.36,6.43,-7.34,0.37,-0.02
1636.52,0.99,-0.65,0.38,6.44,-7.35,0.38,-0.02
1636.65,1.0,-0.66,0.44,6.45,-7.36,0.39,-0.02
1636.79,1.0,-0.64,0.47,6.45,-7.36,0.4,-0.02
1636.93,1.05,-0.61,0.45,6.46,-7.35,0.41,-0.02
1637.06,1.09,-0.6,0.41,6.47,-7.33,0.41,-0.02
1637.2,1.07,-0.61,0.42,6.47,-7.34,0.4,-0.02
1637.34,1.06,-0.61,0.45,6.47,-7.36,0.4,-0.02
1637.48,1.08,-0.62,0.47,6.46,-7.38,0.4,-0.02
1637.61,1.1,-0.63,0.48,6.46,-7.37,0.41,-0.02
1637.75,1.08,-0.63,0.48,6.45,-7.34,0.4,-0.02
1637.89,1.05,-0.64,0.47,6.45,-7.33,0.4,-0.02
1638.03,1.04,-0.66,0.44,6.46,-7.34,0.4,-0.02
1638.16,1.03,-0.64,0.4,6.47,-7.36,0.4,-0.02
1638.3,1.03,-0.61,0.37,6.46,-7.37,0.41,-0.02
1638.44,1.02,-0.57,0.36,6.45,-7.37,0.42,-0.02
1638.58,1.04,-0.56,0.37,6.44,-7.37,0.42,-0.02
1638.71,1.07,-0.59,0.44,6.44,-7.36,0.41,-0.02
1638.85,1.1,-0.62,0.49,6.44,-7.35,0.39,-0.02
1638.99,1.1,-0.68,0.46,6.44,-7.33,0.38,-0.02
1639.13,1.08,-0.74,0.4,6.45,-7.31,0.37,-0.02
1639.26,1.05,-0.75,0.36,6.43,-7.32,0.39,-0.02
1639.4,1.06,-0.74,0.34,6.42,-7.34,0.42,-0.02
1639.54,1.09,-0.76,0.32,6.43,-7.36,0.43,-0.02
1639.68,1.11,-0.74,0.34,6.44,-7.37,0.43,-0.02
1639.81,1.11,-0.66,0.38,6.44,-7.39,0.42,-0.02
1639.95,1.07,-0.61,0.41,6.43,-7.39,0.41,-0.02
1640.09,1.06,-0.63,0.45,6.44,-7.38,0.4,-0.02
1640.22,1.08,-0.66,0.48,6.44,-7.37,0.39,-0.02
1640.36,1.09,-0.65,0.48,6.46,-7.37,0.41,-0.02
1640.5,1.09,-0.66,0.45,6.47,-7.36,0.42,-0.02
1640.64,1.07,-0.71,0.45,6.48,-7.36,0.41,-0.02
1640.78,1.03,-0.74,0.46,6.48,-7.37,0.38,-0.02
1640.91,1.01,-0.71,0.44,6.47,-7.36,0.36,-0.02
1641.05,1.02,-0.64,0.44,6.48,-7.32,0.38,-0.02
1641.19,1.02,-0.58,0.47,6.49,-7.29,0.4,-0.02
1641.32,1.02,-0.62,0.5,6.48,-7.29,0.4,-0.02
1641.46,1.02,-0.71,0.48,6.46,-7.31,0.39,-0.02
1641.6,1.01,-0.72,0.43,6.45,-7.32,0.38,-0.02
1641.74,1.02,-0.66,0.41,6.45,-7.33,0.37,-0.02
1641.87,1.06,-0.63,0.38,6.45,-7.34,0.37,-0.02
1642.01,1.14,-0.66,0.35,6.44,-7.36,0.38,-0.02
1642.15,1.17,-0.68,0.35,6.44,-7.37,0.4,-0.02
1642.29,1.13,-0.67,0.4,6.45,-7.37,0.41,-0.02
1642.42,1.06,-0.7,0.45,6.45,-7.37,0.41,-0.02
1642.56,1.03,-0.72,0.47,6.45,-7.38,0.38,-0.02
1642.7,1.06,-0.68,0.47,6.46,-7.38,0.37,-0.02
1642.84,1.12,-0.65,0.45,6.47,-7.37,0.38,-0.02
1642.97,1.15,-0.64,0.44,6.48,-7.36,0.39,-0.02
1643.11,1.14,-0.65,0.43,6.47,-7.35,0.38,-0.02
1643.25,1.11,-0.67,0.37,6.47,-7.35,0.37,-0.02
1643.39,1.11,-0.69,0.32,6.47,-7.35,0.37,-0.02
1643.52,1.12,-0.75,0.31,6.47,-7.34,0.37,-0.02
1643.66,1.09,-0.79,0.33,6.45,-7.34,0.38,-0.02
1643.8,1.02,-0.76,0.36,6.44,-7.33,0.38,-0.02
1643.94,0.98,-0.68,0.36,6.44,-7.33,0.39,-0.02
1644.07,1.01,-0.63,0.37,6.46,-7.32,0.4,-0.02
1644.21,1.04,-0.6,0.41,6.48,-7.3,0.4,-0.02
1644.35,1.04,-0.59,0.45,6.48,-7.3,0.39,-0.02
1644.48,1.03,-0.59,0.46,6.48,-7.32,0.38,-0.02
1644.62,1.04,-0.59,0.42,6.47,-7.33,0.4,-0.02
1644.76,1.05,-0.57,0.39,6.46,-7.35,0.41,-0.02
1644.9,1.06,-0.57,0.41,6.45,-7.37,0.39,-0.02
1645.04,1.04,-0.58,0.45,6.43,-7.38,0.39,-0.02
1645.17,1.03,-0.62,0.46,6.43,-7.39,0.4,-0.02
1645.31,1.04,-0.67,0.42,6.43,-7.38,0.39,-0.02
1645.45,1.06,-0.67,0.36,6.44,-7.36,0.36,-0.02
1645.58,1.07,-0.62,0.31,6.45,-7.35,0.36,-0.02
1645.72,1.06,-0.61,0.25,6.44,-7.37,0.36,-0.02
1645.86,1.04,-0.67,0.22,6.44,-7.38,0.38,-0.02
1646.0,1.01,-0.71,0.27,6.45,-7.39,0.39,-0.02
1646.14,1.01,-0.68,0.4,6.45,-7.4,0.39,-0.02
1646.27,1.01,-0.64,0.53,6.46,-7.39,0.38,-0.02
1646.41,1.01,-0.65,0.56,6.47,-7.37,0.36,-0.02
1646.55,1.03,-0.72,0.54,6.48,-7.36,0.35,-0.02
1646.69,1.07,-0.78,0.52,6.47,-7.36,0.36,-0.02
1646.82,1.1,-0.79,0.52,6.46,-7.36,0.4,-0.02
1646.96,1.12,-0.76,0.48,6.46,-7.37,0.43,-0.02
1647.1,1.1,-0.72,0.47,6.47,-7.38,0.43,-0.02
1647.23,1.04,-0.71,0.5,6.47,-7.39,0.4,-0.02
1647.37,0.98,-0.69,0.55,6.46,-7.37,0.38,-0.02
1647.51,0.99,-0.65,0.51,6.44,-7.35,0.37,-0.02
1647.65,1.02,-0.62,0.39,6.44,-7.35,0.37,-0.02
1647.78,1.03,-0.66,0.3,6.44,-7.35,0.36,-0.02
1647.92,1.01,-0.72,0.29,6.44,-7.36,0.37,-0.02
1648.06,1.02,-0.74,0.3,6.44,-7.38,0.4,-0.02
1648.2,1.05,-0.71,0.33,6.46,-7.38,0.41,-0.02
1648.33,1.09,-0.65,0.35,6.48,-7.38,0.41,-0.02
1648.47,1.11,-0.61,0.33,6.48,-7.39,0.4,-0.02
1648.61,1.12,-0.6,0.27,6.47,-7.39,0.4,-0.02
1648.75,1.11,-0.63,0.29,6.46,-7.38,0.4,-0.02
1648.88,1.08,-0.68,0.47,6.46,-7.38,0.39,-0.02
1649.02,1.07,-0.72,0.61,6.47,-7.37,0.36,-0.02
1649.16,1.08,-0.71,0.62,6.47,-7.36,0.35,-0.02
1649.3,1.08,-0.68,0.52,6.47,-7.35,0.37,-0.02
1649.43,1.07,-0.67,0.33,6.47,-7.35,0.39,-0.02
1649.57,1.06,-0.63,0.17,6.47,-7.35,0.42,-0.02
1649.71,1.06,-0.6,0.13,6.46,-7.35,0.44,-0.02
1649.85,1.07,-0.62,0.19,6.46,-7.37,0.43,-0.02
1649.98,1.08,-0.65,0.27,6.46,-7.37,0.42,-0.02
1650.12,1.07,-0.66,0.34,6.46,-7.36,0.41,-0.02
1650.26,1.04,-0.66,0.4,6.45,-7.35,0.4,-0.02
1650.4,1.03,-0.64,0.42,6.45,-7.35,0.4,-0.02
1650.53,1.08,-0.62,0.38,6.44,-7.35,0.4,-0.02
1650.67,1.1,-0.59,0.33,6.42,-7.36,0.4,-0.02
1650.81,1.11,-0.58,0.32,6.42,-7.35,0.4,-0.02
1650.95,1.11,-0.59,0.38,6.45,-7.35,0.4,-0.02
1651.08,1.1,-0.62,0.45,6.47,-7.36,0.4,-0.02
1651.22,1.06,-0.64,0.47,6.48,-7.38,0.4,-0.02
1651.36,1.01,-0.66,0.45,6.47,-7.38,0.4,-0.02
1651.49,0.96,-0.68,0.44,6.47,-7.38,0.41,-0.02
1651.63,0.96,-0.65,0.45,6.47,-7.37,0.44,-0.02
1651.77,0.98,-0.63,0.43,6.47,-7.37,0.47,-0.02
1651.91,1.02,-0.67,0.37,6.47,-7.37,0.48,-0.02
1652.04,1.04,-0.71,0.3,6.45,-7.37,0.45,-0.02
1652.18,1.03,-0.71,0.26,6.43,-7.37,0.42,-0.02
1652.32,1.04,-0.71,0.25,6.42,-7.36,0.4,-0.02
1652.46,1.07,-0.71,0.28,6.42,-7.35,0.37,-0.02
1652.59,1.06,-0.68,0.37,6.43,-7.35,0.36,-0.02
1652.73,1.0,-0.68,0.52,6.45,-7.35,0.36,-0.02
1652.87,0.97,-0.72,0.63,6.46,-7.35,0.35,-0.02
1653.01,1.0,-0.74,0.59,6.47,-7.34,0.35,-0.02
1653.14,1.02,-0.7,0.45,6.45,-7.35,0.35,-0.02
1653.28,1.03,-0.64,0.35,6.44,-7.36,0.36,-0.02
1653.42,1.05,-0.6,0.34,6.44,-7.37,0.37,-0.02
1653.56,1.06,-0.61,0.32,6.43,-7.36,0.38,-0.02
1653.69,1.05,-0.64,0.32,6.42,-7.36,0.38,-0.02
1653.83,1.06,-0.68,0.35,6.43,-7.36,0.39,-0.02
1653.97,1.05,-0.72,0.36,6.46,-7.36,0.41,-0.02
1654.1,1.04,-0.7,0.35,6.46,-7.36,0.42,-0.02
1654.24,1.04,-0.64,0.34,6.46,-7.35,0.41,-0.02
1654.38,1.07,-0.6,0.38,6.46,-7.34,0.4,-0.02
1654.52,1.08,-0.61,0.47,6.46,-7.33,0.39,-0.02
1654.65,1.07,-0.61,0.55,6.45,-7.33,0.4,-0.02
1654.79,1.02,-0.61,0.57,6.45,-7.33,0.42,-0.02
1654.93,0.97,-0.63,0.5,6.45,-7.34,0.43,-0.02
1655.07,0.95,-0.62,0.43,6.45,-7.35,0.43,-0.02
1655.2,0.99,-0.61,0.42,6.44,-7.36,0.42,-0.02
1655.34,1.04,-0.6,0.43,6.45,-7.36,0.41,-0.02
1655.48,1.05,-0.62,0.43,6.46,-7.37,0.38,-0.02
1655.62,1.06,-0.63,0.44,6.47,-7.37,0.38,-0.02
1655.75,1.08,-0.63,0.46,6.47,-7.37,0.39,-0.02
1655.89,1.09,-0.64,0.47,6.48,-7.37,0.39,-0.02
1656.03,1.09,-0.66,0.45,6.48,-7.37,0.39,-0.02
1656.17,1.08,-0.67,0.38,6.48,-7.36,0.39,-0.02
1656.3,1.07,-0.66,0.32,6.47,-7.36,0.4,-0.02
1656.44,1.06,-0.67,0.31,6.45,-7.35,0.4,-0.02
1656.58,1.08,-0.67,0.32,6.45,-7.34,0.4,-0.02
1656.71,1.11,-0.65,0.34,6.46,-7.33,0.39,-0.02
1656.85,1.11,-0.63,0.36,6.47,-7.33,0.39,-0.02
1656.99,1.09,-0.64,0.38,6.46,-7.35,0.41,-0.02
1657.13,1.06,-0.69,0.38,6.44,-7.37,0.41,-0.02
1657.27,1.05,-0.7,0.38,6.44,-7.37,0.4,-0.02
1657.4,1.04,-0.69,0.38,6.44,-7.36,0.38,-0.02
1657.54,1.02,-0.67,0.37,6.45,-7.35,0.37,-0.02
1657.68,1.01,-0.63,0.37,6.46,-7.35,0.38,-0.02
1657.81,1.03,-0.6,0.37,6.46,-7.36,0.4,-0.02
1657.95,1.06,-0.59,0.37,6.47,-7.36,0.41,-0.02
1658.09,1.09,-0.61,0.39,6.47,-7.35,0.4,-0.02
1658.23,1.13,-0.62,0.44,6.48,-7.35,0.37,-0.02
1658.36,1.09,-0.63,0.45,6.48,-7.35,0.37,-0.02
1658.5,1.02,-0.62,0.43,6.48,-7.35,0.38,-0.02
1658.64,1.0,-0.59,0.41,6.48,-7.34,0.38,-0.02
1658.78,1.04,-0.59,0.36,6.47,-7.35,0.38,-0.02
1658.91,1.06,-0.64,0.32,6.47,-7.36,0.38,-0.02
1659.05,1.04,-0.66,0.34,6.45,-7.35,0.4,-0.02
1659.19,1.03,-0.66,0.42,6.45,-7.34,0.4,-0.02
1659.32,1.07,-0.65,0.48,6.46,-7.33,0.39,-0.02
1659.46,1.12,-0.67,0.46,6.47,-7.33,0.38,-0.02
1659.6,1.12,-0.67,0.4,6.47,-7.34,0.37,-0.02
1659.74,1.08,-0.65,0.36,6.46,-7.36,0.39,-0.02
1659.88,1.04,-0.65,0.38,6.44,-7.37,0.41,-0.02
1660.01,1.05,-0.67,0.42,6.44,-7.38,0.44,-0.02
1660.15,1.08,-0.67,0.47,6.46,-7.39,0.44,-0.02
1660.29,1.08,-0.65,0.47,6.48,-7.38,0.41,-0.02
1660.43,1.06,-0.61,0.45,6.48,-7.37,0.38,-0.02
1660.56,1.05,-0.57,0.41,6.47,-7.35,0.38,-0.02
1660.7,1.06,-0.55,0.39,6.47,-7.34,0.4,-0.02
1660.84,1.08,-0.59,0.41,6.46,-7.35,0.42,-0.02
1660.97,1.08,-0.67,0.45,6.44,-7.35,0.44,-0.02
1661.11,1.05,-0.72,0.45,6.42,-7.36,0.44,-0.02
1661.25,1.02,-0.73,0.4,6.42,-7.35,0.43,-0.02
1661.39,1.03,-0.69,0.39,6.44,-7.35,0.42,-0.02
1661.52,1.03,-0.66,0.45,6.45,-7.34,0.42,-0.02
1661.66,1.04,-0.64,0.5,6.46,-7.34,0.43,-0.02
1661.8,1.05,-0.63,0.48,6.46,-7.35,0.44,-0.02
1661.94,1.04,-0.63,0.43,6.46,-7.36,0.43,-0.02
1662.07,1.02,-0.65,0.41,6.45,-7.35,0.41,-0.02
1662.21,1.01,-0.65,0.42,6.44,-7.35,0.41,-0.02
1662.35,0.99,-0.64,0.41,6.43,-7.36,0.41,-0.02
1662.49,0.98,-0.65,0.41,6.42,-7.35,0.4,-0.02
1662.62,1.0,-0.67,0.4,6.42,-7.33,0.39,-0.02
1662.76,1.01,-0.68,0.37,6.43,-7.33,0.39,-0.02
1662.9,1.01,-0.64,0.37,6.44,-7.34,0.39,-0.02
1663.04,1.01,-0.6,0.38,6.46,-7.36,0.4,-0.02
1663.18,1.06,-0.62,0.39,6.46,-7.36,0.39,-0.02
1663.31,1.12,-0.64,0.4,6.46,-7.35,0.39,-0.02
1663.45,1.16,-0.63,0.38,6.46,-7.34,0.41,-0.02
1663.59,1.16,-0.66,0.35,6.45,-7.34,0.42,-0.02
1663.72,1.11,-0.7,0.36,6.44,-7.34,0.41,-0.02
1663.86,1.06,-0.7,0.37,6.44,-7.34,0.4,-0.02
1664.0,1.03,-0.66,0.36,6.46,-7.34,0.4,-0.02
1664.14,1.03,-0.62,0.38,6.47,-7.34,0.4,-0.02
1664.27,1.07,-0.59,0.4,6.47,-7.34,0.4,-0.02
1664.41,1.13,-0.59,0.41,6.46,-7.35,0.38,-0.02
1664.55,1.15,-0.59,0.4,6.45,-7.36,0.36,-0.02
1664.69,1.13,-0.59,0.4,6.45,-7.37,0.34,-0.02
1664.82,1.08,-0.59,0.43,6.46,-7.37,0.33,-0.02
1664.96,1.03,-0.57,0.47,6.47,-7.37,0.35,-0.02
1665.1,1.04,-0.53,0.45,6.49,-7.36,0.37,-0.02
1665.24,1.12,-0.52,0.37,6.5,-7.35,0.39,-0.02
1665.37,1.13,-0.55,0.31,6.48,-7.34,0.38,-0.02
1665.51,1.11,-0.6,0.28,6.46,-7.34,0.37,-0.02
1665.65,1.09,-0.63,0.3,6.45,-7.35,0.36,-0.02
1665.79,1.08,-0.64,0.36,6.44,-7.35,0.38,-0.02
1665.92,1.03,-0.64,0.41,6.44,-7.35,0.4,-0.02
1666.06,0.96,-0.63,0.42,6.45,-7.35,0.41,-0.02
1666.2,0.95,-0.59,0.41,6.47,-7.35,0.4,-0.02
1666.33,1.02,-0.58,0.42,6.48,-7.35,0.39,-0.02
1666.47,1.1,-0.59,0.45,6.48,-7.35,0.4,-0.02
1666.61,1.13,-0.58,0.47,6.47,-7.36,0.43,-0.02
1666.75,1.09,-0.57,0.46,6.46,-7.37,0.44,-0.02
1666.88,1.02,-0.61,0.44,6.47,-7.38,0.43,-0.02
1667.02,1.0,-0.66,0.41,6.48,-7.37,0.41,-0.02
1667.16,1.02,-0.7,0.38,6.49,-7.34,0.4,-0.02
1667.3,1.03,-0.76,0.41,6.49,-7.33,0.4,-0.02
1667.43,0.99,-0.81,0.5,6.48,-7.33,0.39,-0.02
1667.57,0.95,-0.83,0.55,6.46,-7.35,0.38,-0.02
1667.71,0.99,-0.8,0.54,6.44,-7.37,0.38,-0.02
1667.85,1.04,-0.76,0.51,6.43,-7.36,0.37,-0.02
1667.98,1.01,-0.73,0.51,6.43,-7.34,0.37,-0.02
1668.12,0.96,-0.69,0.55,6.44,-7.34,0.38,-0.02
1668.26,0.96,-0.65,0.64,6.45,-7.34,0.39,-0.02
1668.4,0.99,-0.65,0.7,6.44,-7.36,0.39,-0.02
1668.53,1.03,-0.67,0.67,6.45,-7.37,0.41,-0.02
1668.67,1.07,-0.67,0.54,6.47,-7.38,0.42,-0.02
1668.81,1.11,-0.67,0.4,6.48,-7.38,0.42,-0.02
1668.95,1.12,-0.67,0.3,6.47,-7.38,0.41,-0.02
1669.08,1.12,-0.68,0.33,6.45,-7.36,0.41,-0.02
1669.22,1.14,-0.67,0.43,6.44,-7.35,0.41,-0.02
1669.36,1.12,-0.62,0.42,6.43,-7.33,0.41,-0.02
1669.5,1.08,-0.61,0.36,6.42,-7.32,0.4,-0.02
1669.63,1.06,-0.63,0.36,6.44,-7.31,0.39,-0.02
1669.77,1.06,-0.63,0.41,6.46,-7.31,0.39,-0.02
1669.91,1.06,-0.65,0.46,6.46,-7.32,0.4,-0.02
1670.05,1.03,-0.72,0.49,6.45,-7.33,0.4,-0.02
1670.18,1.02,-0.76,0.48,6.43,-7.34,0.39,-0.02
1670.32,1.0,-0.74,0.4,6.41,-7.35,0.39,-0.02
1670.46,0.97,-0.65,0.3,6.42,-7.37,0.4,-0.02
1670.59,0.94,-0.57,0.27,6.43,-7.38,0.41,-0.02
1670.73,0.91,-0.56,0.34,6.43,-7.39,0.43,-0.02
1670.87,0.93,-0.59,0.42,6.43,-7.38,0.43,-0.02
1671.01,0.99,-0.59,0.46,6.44,-7.36,0.41,-0.02
1671.14,1.07,-0.58,0.45,6.44,-7.35,0.4,-0.02
1671.28,1.09,-0.6,0.43,6.45,-7.35,0.4,-0.02
1671.42,1.07,-0.63,0.44,6.45,-7.35,0.39,-0.02
1671.56,1.04,-0.64,0.47,6.45,-7.35,0.4,-0.02
1671.69,1.04,-0.64,0.48,6.45,-7.36,0.4,-0.02
1671.83,1.07,-0.7,0.45,6.45,-7.36,0.39,-0.02
1671.97,1.1,-0.73,0.43,6.44,-7.36,0.39,-0.02
1672.11,1.13,-0.69,0.42,6.45,-7.36,0.4,-0.02
1672.24,1.15,-0.66,0.43,6.46,-7.36,0.41,-0.02
1672.38,1.1,-0.65,0.47,6.47,-7.36,0.44,-0.02
1672.52,1.01,-0.67,0.53,6.48,-7.34,0.44,-0.02
1672.66,0.99,-0.71,0.56,6.48,-7.32,0.41,-0.02
1672.79,1.0,-0.74,0.52,6.49,-7.33,0.38,-0.02
1672.93,1.02,-0.75,0.44,6.5,-7.33,0.38,-0.02
1673.07,1.03,-0.73,0.38,6.48,-7.33,0.38,-0.02
1673.21,1.04,-0.71,0.38,6.47,-7.32,0.39,-0.02
1673.34,1.05,-0.69,0.38,6.47,-7.33,0.39,-0.02
1673.48,1.07,-0.66,0.39,6.48,-7.34,0.4,-0.02
1673.62,1.09,-0.66,0.4,6.47,-7.35,0.39,-0.02
1673.76,1.08,-0.72,0.42,6.46,-7.36,0.4,-0.02
1673.89,1.03,-0.76,0.44,6.44,-7.35,0.4,-0.02
1674.03,1.0,-0.72,0.42,6.43,-7.34,0.39,-0.02
1674.17,1.01,-0.69,0.36,6.43,-7.33,0.36,-0.02
1674.31,1.04,-0.69,0.29,6.45,-7.33,0.34,-0.02
1674.44,1.03,-0.68,0.27,6.45,-7.35,0.34,-0.02
1674.58,0.98,-0.66,0.29,6.45,-7.36,0.36,-0.02
1674.72,0.96,-0.65,0.3,6.46,-7.37,0.39,-0.02
1674.85,0.99,-0.65,0.34,6.46,-7.37,0.41,-0.02
1674.99,1.03,-0.66,0.43,6.46,-7.37,0.42,-0.02
1675.13,1.04,-0.66,0.5,6.46,-7.37,0.42,-0.02
1675.27,1.03,-0.69,0.51,6.46,-7.37,0.43,-0.02
1675.41,1.02,-0.68,0.47,6.47,-7.36,0.43,-0.02
1675.54,1.02,-0.65,0.39,6.47,-7.35,0.43,-0.02
1675.68,1.03,-0.62,0.34,6.47,-7.35,0.4,-0.02
1675.82,1.06,-0.58,0.33,6.48,-7.35,0.39,-0.02
1675.95,1.08,-0.58,0.34,6.47,-7.34,0.4,-0.02
1676.09,1.08,-0.62,0.41,6.45,-7.33,0.41,-0.02
1676.23,1.06,-0.65,0.49,6.45,-7.32,0.4,-0.02
1676.37,1.05,-0.68,0.52,6.45,-7.34,0.4,-0.02
1676.5,1.06,-0.75,0.52,6.45,-7.38,0.4,-0.02
1676.64,1.07,-0.79,0.48,6.45,-7.39,0.38,-0.02
1676.78,1.09,-0.79,0.42,6.45,-7.36,0.37,-0.02
1676.92,1.1,-0.77,0.39,6.44,-7.33,0.36,-0.02
1677.05,1.05,-0.74,0.42,6.43,-7.34,0.37,-0.02
1677.19,0.97,-0.7,0.46,6.43,-7.37,0.38,-0.02
1677.33,0.93,-0.67,0.48,6.44,-7.38,0.39,-0.02
1677.47,0.95,-0.68,0.47,6.45,-7.39,0.4,-0.02
1677.6,0.97,-0.7,0.45,6.46,-7.39,0.4,-0.02
1677.74,1.0,-0.7,0.44,6.47,-7.39,0.39,-0.02
1677.88,1.02,-0.68,0.41,6.46,-7.38,0.39,-0.02
1678.02,1.01,-0.66,0.39,6.46,-7.37,0.39,-0.02
1678.15,1.0,-0.64,0.41,6.47,-7.35,0.4,-0.02
1678.29,0.96,-0.62,0.44,6.47,-7.37,0.42,-0.02
1678.43,0.95,-0.63,0.46,6.45,-7.42,0.44,-0.02
1678.56,0.97,-0.65,0.46,6.45,-7.43,0.45,-0.02
1678.7,1.01,-0.69,0.42,6.45,-7.39,0.44,-0.02
1678.84,1.03,-0.69,0.38,6.46,-7.36,0.42,-0.02
1678.98,1.03,-0.69,0.35,6.46,-7.34,0.4,-0.02
1679.11,1.02,-0.7,0.34,6.46,-7.34,0.37,-0.02
1679.25,1.02,-0.72,0.38,6.47,-7.34,0.37,-0.02
1679.39,1.02,-0.74,0.45,6.47,-7.35,0.39,-0.02
1679.53,0.99,-0.74,0.47,6.45,-7.35,0.42,-0.02
1679.66,0.99,-0.73,0.44,6.45,-7.35,0.42,-0.02
1679.8,0.99,-0.69,0.42,6.46,-7.35,0.42,-0.02
1679.94,1.01,-0.63,0.46,6.47,-7.34,0.42,-0.02
1680.08,1.03,-0.63,0.47,6.47,-7.34,0.41,-0.02
1680.21,1.04,-0.68,0.4,6.46,-7.34,0.4,-0.02
1680.35,1.04,-0.68,0.32,6.45,-7.35,0.4,-0.02
1680.49,1.03,-0.64,0.34,6.44,-7.35,0.4,-0.02
1680.63,1.01,-0.6,0.45,6.44,-7.36,0.39,-0.02
1680.76,1.0,-0.59,0.49,6.45,-7.36,0.38,-0.02
1680.9,1.02,-0.59,0.46,6.45,-7.35,0.38,-0.02
1681.04,1.07,-0.62,0.43,6.46,-7.33,0.37,-0.02
1681.18,1.1,-0.65,0.4,6.47,-7.34,0.37,-0.02
1681.31,1.11,-0.68,0.36,6.47,-7.36,0.39,-0.02
1681.45,1.1,-0.69,0.34,6.46,-7.38,0.41,-0.02
1681.59,1.07,-0.67,0.36,6.47,-7.38,0.42,-0.02
1681.72,1.05,-0.64,0.38,6.48,-7.38,0.42,-0.02
1681.86,1.04,-0.64,0.38,6.47,-7.39,0.4,-0.02
1682.0,1.03,-0.68,0.37,6.46,-7.38,0.37,-0.02
1682.14,1.02,-0.72,0.35,6.45,-7.37,0.36,-0.02
1682.27,1.02,-0.72,0.34,6.44,-7.37,0.36,-0.02
1682.41,1.06,-0.7,0.37,6.43,-7.37,0.37,-0.02
1682.55,1.08,-0.7,0.43,6.43,-7.37,0.35,-0.02
1682.69,1.07,-0.67,0.51,6.43,-7.37,0.35,-0.02
1682.82,1.07,-0.65,0.52,6.45,-7.37,0.37,-0.02
1682.96,1.06,-0.65,0.44,6.46,-7.35,0.4,-0.02
1683.1,1.06,-0.66,0.34,6.46,-7.34,0.41,-0.02
1683.24,1.09,-0.65,0.29,6.46,-7.34,0.41,-0.02
1683.37,1.1,-0.63,0.28,6.48,-7.35,0.41,-0.02
1683.51,1.1,-0.63,0.3,6.49,-7.34,0.39,-0.02
1683.65,1.12,-0.62,0.33,6.49,-7.33,0.36,-0.02
1683.79,1.11,-0.59,0.36,6.47,-7.34,0.37,-0.02
1683.92,1.04,-0.57,0.42,6.47,-7.34,0.39,-0.02
1684.06,0.98,-0.58,0.48,6.47,-7.34,0.37,-0.02
1684.2,0.96,-0.63,0.5,6.47,-7.34,0.35,-0.02
1684.33,0.96,-0.67,0.48,6.48,-7.35,0.35,-0.02
1684.47,0.97,-0.67,0.47,6.47,-7.36,0.36,-0.02
1684.61,0.99,-0.64,0.46,6.46,-7.36,0.38,-0.02
1684.75,1.02,-0.65,0.39,6.44,-7.36,0.4,-0.02
1684.89,1.04,-0.69,0.31,6.43,-7.37,0.38,-0.02
1685.02,1.04,-0.71,0.3,6.42,-7.37,0.35,-0.02
1685.16,1.04,-0.68,0.31,6.43,-7.38,0.35,-0.02
1685.3,1.04,-0.63,0.34,6.43,-7.37,0.38,-0.02
1685.44,1.07,-0.64,0.37,6.43,-7.36,0.4,-0.02
1685.57,1.08,-0.71,0.4,6.45,-7.36,0.41,-0.02
1685.71,1.08,-0.73,0.43,6.46,-7.37,0.39,-0.02
1685.85,1.12,-0.69,0.44,6.46,-7.38,0.37,-0.02
1685.98,1.15,-0.64,0.41,6.46,-7.38,0.37,-0.02
1686.12,1.17,-0.59,0.39,6.47,-7.38,0.38,-0.02
1686.26,1.17,-0.54,0.43,6.48,-7.37,0.38,-0.02
1686.4,1.15,-0.54,0.46,6.49,-7.36,0.37,-0.02
1686.54,1.08,-0.59,0.48,6.48,-7.36,0.36,-0.02
1686.67,1.03,-0.63,0.52,6.46,-7.35,0.36,-0.02
1686.81,1.0,-0.65,0.55,6.44,-7.35,0.37,-0.02
1686.95,0.98,-0.67,0.54,6.44,-7.35,0.37,-0.02
1687.08,0.99,-0.67,0.53,6.44,-7.36,0.37,-0.02
1687.22,1.01,-0.66,0.52,6.44,-7.36,0.36,-0.02
1687.36,1.04,-0.65,0.51,6.45,-7.35,0.37,-0.02
1687.5,1.06,-0.63,0.5,6.46,-7.34,0.39,-0.02
1687.63,1.05,-0.6,0.49,6.47,-7.34,0.41,-0.02
1687.77,1.04,-0.59,0.45,6.48,-7.34,0.42,-0.02
1687.91,1.02,-0.6,0.39,6.48,-7.35,0.42,-0.02
1688.05,1.02,-0.63,0.33,6.48,-7.35,0.41,-0.02
1688.18,1.04,-0.66,0.28,6.48,-7.33,0.4,-0.02
1688.32,1.05,-0.66,0.33,6.47,-7.33,0.39,-0.02
1688.46,1.06,-0.62,0.49,6.46,-7.34,0.39,-0.02
1688.6,1.05,-0.57,0.62,6.46,-7.34,0.38,-0.02
1688.73,1.04,-0.58,0.64,6.47,-7.35,0.37,-0.02
1688.87,1.03,-0.6,0.58,6.46,-7.35,0.39,-0.02
1689.01,1.02,-0.64,0.5,6.46,-7.36,0.41,-0.02
1689.15,1.03,-0.69,0.41,6.47,-7.38,0.42,-0.02
1689.28,1.08,-0.7,0.35,6.47,-7.4,0.41,-0.02
1689.42,1.15,-0.67,0.38,6.46,-7.38,0.39,-0.02
1689.56,1.19,-0.65,0.46,6.45,-7.36,0.38,-0.02
1689.69,1.17,-0.65,0.53,6.44,-7.35,0.39,-0.02
1689.83,1.11,-0.68,0.54,6.43,-7.37,0.41,-0.02
1689.97,1.08,-0.7,0.48,6.44,-7.38,0.4,-0.02
1690.11,1.11,-0.7,0.35,6.47,-7.39,0.39,-0.02
1690.24,1.12,-0.66,0.21,6.48,-7.39,0.39,-0.02
1690.38,1.08,-0.63,0.15,6.48,-7.37,0.39,-0.02
1690.52,1.04,-0.65,0.2,6.48,-7.35,0.4,-0.02
1690.66,1.03,-0.71,0.3,6.47,-7.33,0.39,-0.02
1690.79,1.03,-0.76,0.37,6.46,-7.33,0.39,-0.02
1690.93,1.03,-0.75,0.39,6.45,-7.35,0.4,-0.02
1691.07,1.03,-0.7,0.39,6.45,-7.37,0.4,-0.02
1691.21,1.05,-0.64,0.39,6.45,-7.38,0.38,-0.02
1691.34,1.09,-0.63,0.41,6.45,-7.39,0.36,-0.02
1691.48,1.15,-0.64,0.43,6.45,-7.39,0.36,-0.02
1691.62,1.17,-0.64,0.45,6.44,-7.39,0.37,-0.02
1691.76,1.14,-0.65,0.48,6.44,-7.37,0.37,-0.02
1691.89,1.09,-0.68,0.47,6.46,-7.36,0.37,-0.02
1692.03,1.05,-0.69,0.44,6.49,-7.35,0.35,-0.02
1692.17,1.01,-0.65,0.42,6.49,-7.35,0.34,-0.02
1692.31,0.97,-0.61,0.43,6.47,-7.34,0.34,-0.02
1692.44,0.96,-0.6,0.42,6.45,-7.35,0.36,-0.02
1692.58,1.0,-0.63,0.39,6.45,-7.37,0.39,-0.02
1692.72,1.03,-0.67,0.35,6.45,-7.38,0.41,-0.02
1692.85,1.02,-0.67,0.33,6.45,-7.39,0.41,-0.02
1692.99,1.05,-0.66,0.33,6.45,-7.4,0.4,-0.02
1693.13,1.06,-0.65,0.37,6.46,-7.39,0.39,-0.02
1693.27,1.04,-0.63,0.43,6.46,-7.38,0.41,-0.02
1693.4,1.04,-0.58,0.43,6.47,-7.36,0.44,-0.02
1693.54,1.08,-0.55,0.38,6.46,-7.37,0.45,-0.02
1693.68,1.12,-0.61,0.32,6.46,-7.37,0.43,-0.02
1693.82,1.1,-0.66,0.3,6.45,-7.36,0.41,-0.02
1693.95,1.05,-0.65,0.35,6.44,-7.35,0.4,-0.02
1694.09,1.01,-0.67,0.43,6.43,-7.35,0.4,-0.02
1694.23,0.99,-0.73,0.49,6.43,-7.35,0.41,-0.02
1694.37,1.03,-0.73,0.51,6.44,-7.33,0.4,-0.02
1694.5,1.07,-0.69,0.49,6.46,-7.33,0.4,-0.02
1694.64,1.09,-0.66,0.44,6.47,-7.34,0.41,-0.02
1694.78,1.1,-0.66,0.43,6.46,-7.37,0.42,-0.02
1694.92,1.1,-0.66,0.42,6.45,-7.38,0.43,-0.02
1695.05,1.07,-0.6,0.39,6.43,-7.37,0.42,-0.02
1695.19,1.05,-0.55,0.38,6.42,-7.35,0.41,-0.02
1695.33,1.05,-0.57,0.41,6.43,-7.34,0.4,-0.02
1695.46,1.07,-0.63,0.43,6.43,-7.35,0.41,-0.02
1695.6,1.11,-0.68,0.45,6.44,-7.36,0.41,-0.02
1695.74,1.13,-0.68,0.46,6.45,-7.37,0.41,-0.02
1695.88,1.09,-0.66,0.46,6.47,-7.38,0.4,-0.02
1696.02,1.02,-0.67,0.46,6.47,-7.38,0.38,-0.02
1696.15,0.98,-0.68,0.46,6.47,-7.36,0.38,-0.02
1696.29,0.96,-0.66,0.44,6.46,-7.33,0.38,-0.02
1696.43,0.97,-0.65,0.39,6.46,-7.32,0.38,-0.02
1696.56,1.02,-0.65,0.38,6.46,-7.33,0.39,-0.02
1696.7,1.07,-0.67,0.37,6.47,-7.33,0.4,-0.02
1696.84,1.13,-0.69,0.3,6.47,-7.34,0.39,-0.02
1696.98,1.15,-0.69,0.24,6.46,-7.34,0.38,-0.02
1697.11,1.11,-0.66,0.27,6.46,-7.35,0.39,-0.02
1697.25,1.04,-0.66,0.37,6.46,-7.33,0.4,-0.02
1697.39,1.03,-0.67,0.47,6.46,-7.32,0.41,-0.02
1697.53,1.06,-0.69,0.53,6.45,-7.33,0.41,-0.02
1697.66,1.11,-0.71,0.52,6.44,-7.35,0.42,-0.02
1697.8,1.12,-0.73,0.46,6.43,-7.36,0.42,-0.02
1697.94,1.09,-0.73,0.36,6.43,-7.36,0.42,-0.02
1698.08,1.06,-0.71,0.32,6.45,-7.37,0.42,-0.02
1698.21,1.07,-0.68,0.35,6.46,-7.38,0.41,-0.02
1698.35,1.1,-0.67,0.39,6.45,-7.37,0.4,-0.02
1698.49,1.15,-0.65,0.44,6.44,-7.37,0.4,-0.02
1698.63,1.18,-0.64,0.49,6.44,-7.38,0.4,-0.02
1698.76,1.15,-0.65,0.5,6.45,-7.38,0.41,-0.02
1698.9,1.1,-0.67,0.48,6.45,-7.37,0.42,-0.02
1699.04,1.02,-0.67,0.45,6.46,-7.36,0.41,-0.02
1699.18,0.95,-0.68,0.43,6.46,-7.37,0.4,-0.02
1699.31,0.94,-0.67,0.42,6.46,-7.37,0.41,-0.02
1699.45,0.97,-0.65,0.41,6.45,-7.36,0.42,-0.02
1699.59,1.01,-0.67,0.37,6.44,-7.37,0.44,-0.02
1699.72,1.04,-0.71,0.37,6.43,-7.37,0.42,-0.02
1699.86,1.07,-0.75,0.41,6.44,-7.38,0.39,-0.02
1700.0,1.11,-0.74,0.47,6.45,-7.38,0.37,-0.02
1700.14,1.12,-0.69,0.51,6.46,-7.36,0.35,-0.02
1700.28,1.1,-0.68,0.49,6.46,-7.35,0.34,-0.02
1700.41,1.08,-0.72,0.4,6.45,-7.35,0.36,-0.02
1700.55,1.07,-0.74,0.31,6.45,-7.36,0.38,-0.02
1700.69,1.06,-0.71,0.28,6.46,-7.36,0.38,-0.02
1700.82,1.06,-0.68,0.33,6.45,-7.37,0.38,-0.02
1700.96,1.05,-0.65,0.39,6.44,-7.37,0.37,-0.02
1701.1,1.02,-0.65,0.4,6.44,-7.37,0.37,-0.02
1701.24,0.99,-0.67,0.39,6.44,-7.37,0.35,-0.02
1701.38,0.97,-0.67,0.42,6.44,-7.36,0.36,-0.02
1701.51,0.96,-0.64,0.47,6.44,-7.37,0.38,-0.02
1701.65,0.97,-0.62,0.44,6.44,-7.37,0.4,-0.02
1701.79,1.0,-0.64,0.32,6.45,-7.37,0.4,-0.02
1701.92,1.03,-0.68,0.25,6.46,-7.37,0.39,-0.02
1702.06,1.07,-0.67,0.32,6.47,-7.36,0.37,-0.02
1702.2,1.12,-0.62,0.42,6.48,-7.36,0.36,-0.02
1702.34,1.13,-0.6,0.49,6.46,-7.36,0.36,-0.02
1702.47,1.07,-0.61,0.5,6.44,-7.36,0.38,-0.02
1702.61,1.04,-0.63,0.45,6.43,-7.36,0.39,-0.02
1702.75,1.05,-0.66,0.35,6.43,-7.36,0.37,-0.02
1702.89,1.05,-0.69,0.26,6.45,-7.35,0.35,-0.02
1703.02,1.03,-0.69,0.25,6.48,-7.35,0.35,-0.02
1703.16,1.02,-0.67,0.3,6.48,-7.34,0.35,-0.02
1703.3,1.02,-0.61,0.36,6.48,-7.34,0.36,-0.02
1703.44,1.04,-0.58,0.4,6.48,-7.35,0.37,-0.02
1703.57,1.06,-0.58,0.43,6.46,-7.33,0.39,-0.02
1703.71,1.09,-0.55,0.43,6.45,-7.32,0.4,-0.02
1703.85,1.11,-0.55,0.41,6.44,-7.33,0.42,-0.02
1703.99,1.09,-0.6,0.41,6.43,-7.34,0.42,-0.02
1704.12,1.1,-0.65,0.41,6.43,-7.36,0.39,-0.02
