Time[s],RateRoll[°/s],RatePitch[°/s],RateYaw[°/s],AccX[m/s^2],AccY[m/s^2],AccZ[m/s^2]
9.68,-0.08,0.02,-0.01,-8.27,0.15,-5.6
9.8,-0.08,0.03,-0.02,-8.27,0.14,-5.6
9.91,-0.08,0.03,-0.02,-8.27,0.14,-5.6
10.03,-0.07,0.03,-0.02,-8.28,0.14,-5.6
10.15,-0.07,0.04,-0.02,-8.28,0.15,-5.6
10.26,-0.06,0.04,-0.01,-8.28,0.15,-5.59
10.38,-0.06,0.04,-0.01,-8.27,0.15,-5.59
10.49,-0.07,0.03,-0.01,-8.27,0.16,-5.59
10.61,-0.07,0.02,-0.0,-8.27,0.16,-5.59
10.73,-0.06,0.02,-0.0,-8.27,0.16,-5.59
10.84,-0.06,0.01,-0.01,-8.28,0.15,-5.59
10.96,-0.06,0.0,-0.01,-8.28,0.15,-5.59
11.07,-0.06,0.01,-0.01,-8.28,0.15,-5.58
11.19,-0.06,0.01,-0.01,-8.27,0.15,-5.58
11.3,-0.06,0.02,-0.02,-8.27,0.15,-5.58
11.42,-0.07,0.02,-0.02,-8.27,0.14,-5.58
11.53,-0.08,0.02,-0.01,-8.27,0.14,-5.58
11.65,-0.08,0.02,-0.01,-8.27,0.14,-5.59
11.77,-0.08,0.02,-0.01,-8.27,0.15,-5.59
11.88,-0.07,0.02,-0.01,-8.27,0.15,-5.59
12.0,-0.08,0.03,-0.02,-8.28,0.15,-5.6
12.11,-0.09,0.03,-0.03,-8.28,0.16,-5.6
12.23,-0.09,0.03,-0.04,-8.28,0.16,-5.6
12.35,-0.09,0.04,-0.04,-8.28,0.15,-5.6
12.46,-0.09,0.03,-0.03,-8.28,0.15,-5.6
12.58,-0.08,0.04,-0.01,-8.28,0.15,-5.6
12.69,-0.09,0.05,-0.02,-8.28,0.15,-5.59
12.81,-0.1,0.06,-0.06,-8.28,0.14,-5.59
12.93,-0.09,0.06,-0.08,-8.28,0.15,-5.59
13.04,-0.09,0.04,-0.06,-8.28,0.15,-5.58
13.16,-0.08,0.02,-0.03,-8.28,0.15,-5.58
13.27,-0.07,0.0,-0.0,-8.28,0.15,-5.59
13.39,-0.06,0.01,0.01,-8.27,0.15,-5.59
13.5,-0.06,0.02,0.01,-8.27,0.15,-5.59
13.62,-0.06,0.03,-0.01,-8.27,0.15,-5.6
13.73,-0.07,0.03,-0.02,-8.27,0.15,-5.6
13.85,-0.07,0.02,-0.03,-8.27,0.15,-5.6
13.97,-0.08,0.02,-0.04,-8.28,0.15,-5.6
14.08,-0.08,0.02,-0.03,-8.28,0.15,-5.6
14.2,-0.09,0.01,-0.03,-8.28,0.15,-5.59
14.31,-0.08,-0.01,-0.0,-8.28,0.15,-5.59
14.43,-0.07,-0.03,0.04,-8.28,0.15,-5.59
14.55,0.28,-0.2,-0.72,-8.28,0.15,-5.6
14.66,-3.88,9.99,-8.43,-8.38,0.26,-5.54
14.78,-11.69,23.52,-32.13,-8.75,0.26,-5.53
14.9,-14.15,21.25,-65.72,-8.87,-0.47,-5.81
15.01,-16.97,13.16,-83.91,-8.13,-1.8,-6.1
15.13,-27.83,4.66,-70.07,-7.32,-2.91,-6.19
15.24,-35.97,-2.78,-33.78,-6.99,-3.21,-6.21
15.36,-9.82,-15.71,23.73,-7.25,-3.17,-6.21
15.48,48.82,-36.38,88.67,-8.49,-2.61,-5.79
15.59,79.37,-40.78,108.71,-9.7,-0.84,-4.94
15.71,61.23,-28.79,78.73,-9.8,0.69,-4.63
15.82,30.67,-15.9,40.1,-9.26,0.98,-4.99
15.94,9.26,-6.27,12.74,-8.7,0.69,-5.41
16.06,-1.8,-0.81,-1.63,-8.3,0.28,-5.71
16.17,-5.42,1.23,-6.9,-8.1,-0.03,-5.87
16.29,-5.16,1.34,-7.76,-8.05,-0.22,-5.9
16.4,-3.65,1.02,-6.83,-8.08,-0.3,-5.88
16.52,-2.07,0.65,-4.86,-8.12,-0.3,-5.84
16.64,-0.85,0.18,-2.57,-8.14,-0.27,-5.82
16.75,-0.13,-0.15,-0.79,-8.16,-0.24,-5.81
16.87,0.16,-0.29,0.18,-8.16,-0.22,-5.8
16.99,0.2,-0.32,0.53,-8.17,-0.21,-5.8
17.1,0.13,-0.28,0.54,-8.17,-0.2,-5.8
17.22,0.04,-0.23,0.4,-8.18,-0.2,-5.79
17.33,-0.03,-0.19,0.23,-8.18,-0.19,-5.79
17.45,-0.07,-0.14,0.11,-8.18,-0.2,-5.79
17.56,-0.1,-0.09,0.04,-8.18,-0.2,-5.79
17.68,-0.1,-0.06,-0.01,-8.17,-0.19,-5.79
17.8,-0.1,-0.09,-0.01,-8.18,-0.2,-5.78
17.91,-0.09,-0.11,0.0,-8.18,-0.2,-5.78
18.03,-0.07,-0.1,0.04,-8.18,-0.2,-5.78
18.14,-0.07,-0.07,0.07,-8.18,-0.2,-5.78
18.26,-0.08,-0.04,0.02,-8.18,-0.19,-5.78
18.38,-0.09,-0.04,-0.02,-8.18,-0.19,-5.79
18.49,-0.08,-0.04,-0.02,-8.18,-0.19,-5.79
18.61,-0.07,-0.05,-0.0,-8.18,-0.19,-5.78
18.72,-0.07,-0.05,0.02,-8.19,-0.19,-5.78
18.84,-0.06,-0.06,0.03,-8.19,-0.19,-5.77
18.96,-0.06,-0.06,0.03,-8.19,-0.19,-5.76
19.07,-0.07,-0.04,0.03,-8.19,-0.19,-5.76
19.19,-0.07,-0.05,0.04,-8.19,-0.19,-5.76
19.3,-0.07,-0.05,0.04,-8.19,-0.19,-5.76
19.42,-0.07,-0.01,-0.0,-8.19,-0.19,-5.76
19.54,-0.07,0.0,-0.03,-8.19,-0.19,-5.77
19.65,-0.07,-0.01,-0.03,-8.19,-0.19,-5.76
19.77,-0.07,-0.01,-0.01,-8.19,-0.19,-5.76
19.89,-0.07,0.0,-0.01,-8.19,-0.19,-5.76
20.0,-0.07,0.01,-0.02,-8.19,-0.19,-5.77
20.12,-0.07,0.0,-0.01,-8.19,-0.19,-5.77
20.23,-0.08,-0.01,0.01,-8.2,-0.19,-5.76
20.35,-0.08,-0.01,0.0,-8.2,-0.2,-5.76
20.46,-0.08,-0.01,-0.01,-8.19,-0.19,-5.76
20.58,-0.08,-0.0,-0.02,-8.19,-0.19,-5.76
20.7,-0.08,0.01,-0.03,-8.19,-0.19,-5.76
20.81,-0.09,0.02,-0.03,-8.19,-0.19,-5.75
20.93,-0.09,0.02,-0.02,-8.2,-0.19,-5.75
21.05,-0.08,0.01,-0.03,-8.2,-0.19,-5.75
21.16,-0.08,-0.01,-0.03,-8.2,-0.19,-5.75
21.28,-0.07,-0.02,-0.02,-8.2,-0.19,-5.75
21.39,-0.07,-0.02,-0.0,-8.2,-0.19,-5.75
21.51,-0.07,-0.01,-0.0,-8.2,-0.19,-5.75
21.63,-0.07,-0.01,-0.0,-8.19,-0.18,-5.75
21.74,-0.08,-0.0,-0.0,-8.19,-0.18,-5.75
21.86,-0.09,-0.01,0.0,-8.19,-0.19,-5.75
21.97,-0.09,-0.01,0.0,-8.19,-0.19,-5.75
22.09,-0.09,0.0,0.0,-8.19,-0.18,-5.75
22.21,-0.09,0.01,0.0,-8.2,-0.18,-5.76
22.32,-0.09,0.01,-0.0,-8.2,-0.18,-5.76
22.44,-0.08,0.0,-0.01,-8.2,-0.18,-5.76
22.55,-0.07,0.0,-0.01,-8.2,-0.18,-5.76
22.67,-0.07,0.0,0.0,-8.2,-0.18,-5.76
22.79,-0.07,-0.0,0.01,-8.19,-0.18,-5.75
22.9,-0.07,-0.01,0.02,-8.19,-0.19,-5.75
23.02,-0.08,-0.01,0.01,-8.2,-0.19,-5.75
23.13,-0.08,-0.01,-0.0,-8.2,-0.19,-5.74
23.25,-0.08,-0.0,-0.01,-8.2,-0.18,-5.74
23.37,-0.08,0.0,-0.0,-8.19,-0.18,-5.74
23.48,-0.07,0.0,0.0,-8.19,-0.18,-5.74
23.6,-0.07,0.0,0.01,-8.19,-0.19,-5.74
23.71,-0.07,0.01,0.01,-8.19,-0.19,-5.75
23.83,-0.06,0.01,0.01,-8.19,-0.18,-5.76
23.95,-0.06,0.02,0.0,-8.19,-0.18,-5.76
24.06,-0.07,0.01,-0.01,-8.19,-0.18,-5.76
24.18,-0.08,0.01,-0.02,-8.19,-0.19,-5.76
24.29,-0.08,0.01,-0.02,-8.19,-0.19,-5.75
24.41,-0.08,0.0,-0.02,-8.19,-0.19,-5.74
24.52,-0.08,-0.01,-0.01,-8.19,-0.19,-5.74
24.64,-0.08,-0.01,-0.01,-8.19,-0.19,-5.74
24.76,-0.08,0.0,0.0,-8.19,-0.19,-5.74
24.87,-0.07,0.01,0.01,-8.2,-0.18,-5.74
24.99,-0.08,0.01,0.01,-8.2,-0.18,-5.74
25.1,-0.08,0.02,0.01,-8.2,-0.18,-5.75
25.22,-0.09,0.02,0.01,-8.2,-0.18,-5.75
25.34,-0.09,0.03,-0.01,-8.2,-0.19,-5.75
25.45,-0.1,0.03,-0.01,-8.2,-0.19,-5.75
25.57,-0.09,0.01,-0.01,-8.2,-0.19,-5.75
25.68,-0.08,0.0,-0.01,-8.2,-0.19,-5.74
25.8,-0.07,-0.01,-0.0,-8.2,-0.19,-5.74
25.92,-0.07,-0.03,0.02,-8.19,-0.19,-5.74
26.03,-0.07,-0.03,0.03,-8.2,-0.19,-5.75
26.15,-0.08,-0.02,0.02,-8.2,-0.19,-5.75
26.26,-0.08,0.0,0.01,-8.2,-0.19,-5.76
26.38,-0.08,0.02,-0.01,-8.2,-0.19,-5.75
26.5,-0.08,0.02,-0.02,-8.2,-0.19,-5.75
26.61,-0.08,0.03,-0.02,-8.2,-0.18,-5.75
26.73,-0.07,0.03,-0.02,-8.2,-0.18,-5.75
26.84,-0.07,0.03,-0.02,-8.2,-0.18,-5.75
26.96,-0.07,0.01,-0.02,-8.2,-0.18,-5.75
27.08,-0.08,-0.01,-0.01,-8.2,-0.18,-5.75
27.19,-0.08,-0.02,0.0,-8.2,-0.18,-5.75
27.31,-0.08,-0.03,0.01,-8.2,-0.19,-5.75
27.42,-0.08,-0.01,-0.0,-8.2,-0.19,-5.75
27.54,-0.08,0.01,-0.0,-8.2,-0.19,-5.76
27.66,-0.08,0.02,0.0,-8.2,-0.19,-5.76
27.77,-0.07,0.01,0.0,-8.19,-0.19,-5.76
27.89,-0.07,0.01,0.0,-8.19,-0.19,-5.76
28.0,-0.07,0.02,0.0,-8.19,-0.18,-5.75
28.12,-0.08,0.02,-0.0,-8.2,-0.18,-5.74
28.24,-0.08,0.01,-0.01,-8.2,-0.18,-5.74
28.35,-0.08,0.01,-0.01,-8.2,-0.18,-5.74
28.47,-0.08,0.02,-0.02,-8.2,-0.18,-5.75
28.58,-0.08,0.03,-0.03,-8.2,-0.18,-5.75
28.7,-0.08,0.03,-0.04,-8.21,-0.18,-5.76
28.82,-0.08,0.03,-0.03,-8.21,-0.19,-5.76
28.93,-0.08,0.03,-0.03,-8.21,-0.19,-5.75
29.05,-0.08,0.02,-0.03,-8.21,-0.19,-5.75
29.16,-0.08,0.02,-0.02,-8.2,-0.19,-5.75
29.28,-0.07,0.01,-0.01,-8.2,-0.19,-5.75
29.4,-0.07,-0.01,-0.01,-8.2,-0.18,-5.76
29.51,-0.07,-0.02,-0.01,-8.2,-0.19,-5.76
29.63,-0.06,-0.02,-0.01,-8.2,-0.19,-5.76
29.75,-0.06,-0.02,-0.0,-8.2,-0.19,-5.76
29.86,-0.07,-0.01,-0.0,-8.2,-0.19,-5.75
29.98,-0.07,0.0,-0.01,-8.2,-0.19,-5.75
30.09,-0.07,0.0,-0.02,-8.2,-0.19,-5.75
30.21,-0.07,-0.0,-0.02,-8.2,-0.19,-5.74
30.32,-0.08,-0.0,-0.02,-8.2,-0.19,-5.74
30.44,-0.08,0.01,-0.02,-8.2,-0.19,-5.75
30.56,-0.08,0.02,-0.01,-8.2,-0.19,-5.75
30.67,-0.08,0.01,0.01,-8.2,-0.19,-5.75
30.79,-0.08,0.0,0.01,-8.2,-0.19,-5.75
30.9,-0.08,0.01,-0.0,-8.2,-0.19,-5.75
31.02,-0.08,0.02,-0.01,-8.2,-0.19,-5.75
31.14,-0.08,0.03,-0.01,-8.19,-0.19,-5.74
31.25,-0.09,0.03,-0.01,-8.2,-0.19,-5.74
31.37,-0.09,0.03,-0.01,-8.2,-0.19,-5.74
31.48,-0.08,0.03,-0.01,-8.19,-0.18,-5.74
31.6,-0.08,0.02,-0.01,-8.19,-0.18,-5.74
31.72,-0.07,0.0,-0.01,-8.19,-0.18,-5.74
31.83,-0.06,-0.01,-0.0,-8.19,-0.18,-5.74
31.95,-0.07,-0.01,-0.01,-8.19,-0.18,-5.75
32.06,-0.08,-0.01,-0.01,-8.2,-0.18,-5.75
32.18,-0.08,-0.01,-0.01,-8.2,-0.19,-5.75
32.3,-0.08,-0.0,-0.01,-8.2,-0.19,-5.75
32.41,-0.08,0.01,-0.01,-8.2,-0.18,-5.75
32.53,-0.08,0.02,-0.0,-8.2,-0.18,-5.74
32.65,-0.08,0.03,-0.01,-8.19,-0.18,-5.74
32.76,-0.08,0.03,-0.01,-8.19,-0.18,-5.73
32.88,-0.08,0.03,-0.02,-8.19,-0.18,-5.73
32.99,-0.08,0.03,-0.02,-8.19,-0.18,-5.72
33.11,-0.07,0.02,-0.01,-8.2,-0.18,-5.73
33.23,-0.07,0.01,-0.01,-8.2,-0.18,-5.73
33.34,-0.07,0.01,-0.02,-8.2,-0.18,-5.74
33.46,-0.07,0.01,-0.03,-8.2,-0.18,-5.74
33.57,-0.08,0.02,-0.02,-8.2,-0.18,-5.74
33.69,-0.09,0.02,-0.01,-8.2,-0.19,-5.75
33.81,-0.1,0.03,-0.0,-8.2,-0.19,-5.75
33.92,-0.09,0.04,0.0,-8.2,-0.19,-5.75
34.04,-0.09,0.04,-0.0,-8.2,-0.19,-5.75
34.15,-0.08,0.04,-0.01,-8.2,-0.18,-5.75
34.27,-0.07,0.03,-0.01,-8.2,-0.18,-5.75
34.38,-0.07,0.02,-0.01,-8.2,-0.18,-5.75
34.5,-0.08,0.02,-0.0,-8.2,-0.18,-5.75
34.62,-0.08,0.02,0.0,-8.19,-0.18,-5.76
34.73,-0.08,0.02,0.0,-8.19,-0.18,-5.76
34.85,-0.07,0.02,0.0,-8.19,-0.18,-5.75
34.97,-0.08,0.03,0.0,-8.19,-0.18,-5.75
35.08,-0.08,0.03,-0.01,-8.2,-0.19,-5.74
35.2,-0.08,0.04,-0.01,-8.2,-0.19,-5.74
35.31,-0.08,0.03,-0.0,-8.2,-0.19,-5.74
35.43,-0.07,0.02,0.0,-8.2,-0.19,-5.74
35.54,-0.06,-0.01,0.02,-8.2,-0.19,-5.74
35.66,-0.06,-0.02,0.04,-8.2,-0.19,-5.74
35.78,-0.07,-0.01,0.01,-8.21,-0.19,-5.74
35.89,-0.09,0.03,-0.04,-8.21,-0.19,-5.75
36.01,-0.09,0.05,-0.07,-8.21,-0.19,-5.75
36.13,-0.09,0.04,-0.05,-8.21,-0.19,-5.75
36.24,-0.07,0.0,-0.0,-8.21,-0.18,-5.75
36.36,-0.06,-0.01,0.03,-8.2,-0.18,-5.75
36.47,-0.05,0.0,0.03,-8.2,-0.18,-5.75
36.59,-0.05,0.0,0.02,-8.2,-0.18,-5.75
36.71,-0.05,-0.0,0.01,-8.2,-0.18,-5.75
36.82,-0.07,-0.0,-0.01,-8.2,-0.18,-5.75
36.94,-0.08,-0.0,-0.02,-8.2,-0.18,-5.74
37.05,-0.08,0.0,-0.02,-8.2,-0.18,-5.74
37.17,-0.08,0.02,-0.02,-8.2,-0.18,-5.73
37.28,-0.08,0.02,-0.03,-8.2,-0.18,-5.73
37.4,-0.08,0.02,-0.01,-8.19,-0.18,-5.74
37.52,-0.08,0.03,-0.01,-8.2,-0.18,-5.74
37.63,-0.08,0.04,-0.02,-8.2,-0.18,-5.75
37.75,-0.09,0.03,-0.02,-8.2,-0.18,-5.75
37.87,-0.08,0.04,-0.03,-8.2,-0.18,-5.75
37.98,-0.08,0.05,-0.05,-8.2,-0.18,-5.75
38.1,-0.07,0.06,-0.06,-8.2,-0.19,-5.74
38.21,-0.07,0.07,-0.08,-8.2,-0.18,-5.74
38.33,-0.06,0.06,-0.07,-8.2,-0.18,-5.74
38.45,-0.06,0.04,-0.04,-8.2,-0.19,-5.74
38.56,-0.07,0.03,-0.05,-8.2,-0.19,-5.74
38.68,-0.08,0.04,-0.07,-8.2,-0.19,-5.75
38.79,-0.08,0.04,-0.05,-8.2,-0.18,-5.75
38.91,-0.09,0.02,-0.05,-8.2,-0.18,-5.75
39.02,-0.09,0.02,-0.05,-8.2,-0.18,-5.75
39.14,-0.08,0.02,-0.01,-8.2,-0.18,-5.74
39.26,-0.07,-0.0,0.02,-8.2,-0.18,-5.74
39.37,-0.07,-0.0,0.01,-8.2,-0.18,-5.74
39.49,-0.07,-0.0,-0.0,-8.2,-0.18,-5.74
39.61,-0.07,0.0,-0.01,-8.2,-0.18,-5.74
39.72,-0.08,0.01,-0.01,-8.2,-0.19,-5.74
39.84,-0.08,0.01,-0.01,-8.2,-0.19,-5.75
39.95,-0.07,0.01,-0.01,-8.2,-0.19,-5.75
40.07,-0.07,0.01,-0.01,-8.2,-0.19,-5.75
40.18,-0.08,0.02,-0.02,-8.2,-0.19,-5.75
40.3,-0.09,0.03,-0.02,-8.21,-0.19,-5.75
40.42,-0.09,0.03,-0.02,-8.2,-0.19,-5.74
40.53,-0.1,0.02,-0.02,-8.2,-0.19,-5.74
40.65,-0.1,0.01,-0.0,-8.2,-0.19,-5.73
40.77,-0.08,0.02,0.02,-8.2,-0.19,-5.74
40.88,-0.06,0.02,0.03,-8.2,-0.19,-5.75
41.0,-0.05,0.02,0.02,-8.2,-0.19,-5.75
41.11,-0.05,0.03,-0.0,-8.2,-0.18,-5.75
41.23,-0.06,0.04,-0.03,-8.2,-0.18,-5.75
41.35,-0.05,0.04,-0.04,-8.2,-0.18,-5.74
41.46,-0.06,0.03,-0.05,-8.19,-0.18,-5.74
41.58,-0.07,0.03,-0.03,-8.2,-0.19,-5.74
41.69,-0.08,0.03,-0.04,-8.2,-0.19,-5.74
41.81,-0.08,0.03,-0.05,-8.2,-0.19,-5.74
41.92,-0.08,0.02,-0.05,-8.19,-0.19,-5.74
42.04,-0.08,0.02,-0.04,-8.19,-0.19,-5.75
42.16,-0.08,0.01,-0.04,-8.19,-0.19,-5.75
42.27,-0.09,0.02,-0.03,-8.2,-0.19,-5.75
42.39,-0.09,0.02,-0.03,-8.2,-0.18,-5.75
42.5,-0.09,0.02,-0.03,-8.2,-0.18,-5.75
42.62,-0.09,0.01,-0.03,-8.2,-0.18,-5.74
42.74,-0.09,-0.0,-0.02,-8.2,-0.18,-5.74
42.85,-0.09,-0.0,-0.01,-8.2,-0.18,-5.74
42.97,-0.09,0.02,-0.01,-8.2,-0.18,-5.74
43.08,-0.09,0.04,0.0,-8.2,-0.19,-5.74
43.2,-0.08,0.02,0.02,-8.2,-0.19,-5.74
43.32,-0.07,0.0,0.02,-8.2,-0.19,-5.74
43.43,-0.08,-0.0,0.02,-8.2,-0.19,-5.74
43.55,-0.08,-0.0,0.01,-8.2,-0.19,-5.74
43.66,-0.08,0.01,0.01,-8.2,-0.19,-5.74
43.78,-0.07,0.01,0.02,-8.21,-0.19,-5.74
43.9,-0.07,0.01,0.01,-8.2,-0.19,-5.74
44.01,-0.07,-0.02,-0.01,-8.2,-0.19,-5.74
44.13,-0.07,-0.0,-0.02,-8.2,-0.19,-5.74
44.24,-0.09,0.04,-0.06,-8.2,-0.19,-5.74
44.36,-0.1,0.04,-0.09,-8.2,-0.19,-5.75
44.48,-0.1,0.03,-0.07,-8.2,-0.18,-5.74
44.59,-0.1,0.03,-0.04,-8.2,-0.18,-5.74
44.71,-0.1,0.04,-0.03,-8.2,-0.18,-5.74
44.82,-0.09,0.04,-0.02,-8.2,-0.18,-5.74
44.94,-0.08,0.03,-0.01,-8.2,-0.19,-5.74
45.06,-0.07,0.01,0.0,-8.2,-0.19,-5.74
45.17,-0.07,-0.0,0.0,-8.2,-0.18,-5.74
45.29,-0.07,-0.02,0.01,-8.2,-0.18,-5.74
45.4,-0.07,-0.03,0.02,-8.2,-0.18,-5.74
45.52,-0.07,-0.03,0.03,-8.2,-0.18,-5.74
45.63,-0.07,-0.02,0.03,-8.2,-0.18,-5.74
45.75,-0.08,0.01,0.01,-8.2,-0.18,-5.74
45.87,-0.09,0.03,-0.01,-8.2,-0.18,-5.74
45.98,-0.09,0.05,-0.02,-8.2,-0.18,-5.75
46.1,-0.08,0.05,-0.03,-8.2,-0.19,-5.75
46.22,-0.07,0.04,-0.02,-8.2,-0.19,-5.75
46.33,-0.08,0.02,-0.01,-8.2,-0.19,-5.74
46.45,-0.08,0.02,-0.02,-8.2,-0.19,-5.74
46.56,-0.08,0.01,-0.01,-8.2,-0.18,-5.74
46.68,-0.07,0.01,0.01,-8.2,-0.18,-5.74
46.79,-0.07,0.01,0.01,-8.2,-0.18,-5.74
46.91,-0.07,0.01,0.0,-8.2,-0.18,-5.74
47.03,-0.07,-0.0,-0.0,-8.2,-0.18,-5.74
47.14,-0.07,-0.01,-0.01,-8.2,-0.18,-5.75
47.26,-0.07,-0.02,-0.01,-8.2,-0.18,-5.74
47.38,-0.07,-0.01,-0.0,-8.21,-0.18,-5.74
47.49,-0.06,0.01,-0.0,-8.21,-0.19,-5.74
47.61,-0.06,0.02,-0.01,-8.21,-0.19,-5.74
47.72,-0.07,0.02,-0.02,-8.21,-0.18,-5.74
47.84,-0.07,0.01,-0.03,-8.2,-0.18,-5.74
47.96,-0.06,0.02,-0.03,-8.2,-0.18,-5.75
48.07,-0.06,0.03,-0.03,-8.2,-0.18,-5.74
48.19,-0.07,0.04,-0.03,-8.2,-0.18,-5.74
48.3,-0.08,0.05,-0.04,-8.2,-0.18,-5.75
48.42,-0.08,0.05,-0.04,-8.2,-0.18,-5.75
48.54,-0.08,0.03,-0.03,-8.2,-0.18,-5.75
48.65,-0.08,0.02,-0.03,-8.2,-0.17,-5.75
48.77,-0.08,0.03,-0.03,-8.2,-0.17,-5.74
48.88,-0.08,0.05,-0.05,-8.2,-0.17,-5.74
49.0,-0.08,0.05,-0.06,-8.2,-0.18,-5.74
49.12,-0.07,0.02,-0.02,-8.19,-0.18,-5.74
49.23,-0.07,-0.01,0.03,-8.19,-0.18,-5.74
49.35,-0.07,-0.01,0.03,-8.2,-0.19,-5.74
49.46,-0.08,0.0,-0.01,-8.2,-0.19,-5.74
49.58,-0.09,0.01,-0.02,-8.2,-0.19,-5.74
49.7,-0.08,0.01,-0.02,-8.2,-0.19,-5.75
49.81,-0.07,0.01,-0.02,-8.2,-0.19,-5.75
49.93,-0.07,0.02,-0.02,-8.21,-0.19,-5.75
50.04,-0.07,0.03,-0.02,-8.2,-0.19,-5.74
50.16,-0.08,0.05,-0.05,-8.2,-0.18,-5.74
50.28,-0.08,0.03,-0.04,-8.2,-0.18,-5.75
50.39,-0.07,0.0,0.0,-8.2,-0.18,-5.75
50.51,-0.06,0.0,0.02,-8.2,-0.18,-5.74
50.62,-0.06,0.02,0.02,-8.2,-0.18,-5.73
50.74,-0.07,0.02,0.01,-8.2,-0.18,-5.73
50.85,-0.07,0.03,-0.01,-8.2,-0.19,-5.72
50.97,-0.06,0.04,-0.02,-8.2,-0.19,-5.73
51.09,-0.06,0.03,-0.03,-8.2,-0.19,-5.73
51.2,-0.06,0.03,-0.03,-8.19,-0.19,-5.73
51.32,-0.06,0.02,-0.02,-8.19,-0.19,-5.73
51.44,-0.06,0.01,0.0,-8.19,-0.19,-5.74
51.55,-0.07,0.01,0.01,-8.2,-0.19,-5.74
51.67,-0.08,0.02,0.01,-8.2,-0.19,-5.75
51.78,-0.08,0.01,0.02,-8.2,-0.18,-5.75
51.9,-0.08,0.01,0.02,-8.2,-0.18,-5.75
52.01,-0.08,0.01,0.02,-8.2,-0.18,-5.75
52.13,-0.07,0.01,0.02,-8.2,-0.18,-5.74
52.25,-0.07,0.02,0.01,-8.2,-0.18,-5.73
52.36,-0.08,0.02,0.0,-8.2,-0.18,-5.73
52.48,-0.08,0.02,-0.01,-8.2,-0.18,-5.73
52.59,-0.08,0.01,-0.01,-8.21,-0.18,-5.73
52.71,-0.08,-0.0,-0.02,-8.21,-0.19,-5.74
52.83,-0.08,0.01,-0.02,-8.21,-0.19,-5.74
52.94,-0.07,0.03,-0.03,-8.2,-0.19,-5.74
53.06,-0.07,0.04,-0.03,-8.2,-0.19,-5.74
53.17,-0.07,0.03,-0.02,-8.2,-0.19,-5.74
53.29,-0.07,0.02,-0.01,-8.2,-0.19,-5.75
53.4,-0.08,0.01,-0.01,-8.2,-0.18,-5.74
53.52,-0.08,0.0,0.0,-8.19,-0.18,-5.74
53.64,-0.07,0.0,-0.0,-8.19,-0.18,-5.74
53.75,-0.06,0.0,-0.01,-8.19,-0.18,-5.74
53.87,-0.06,0.01,-0.01,-8.2,-0.19,-5.74
53.99,-0.06,0.02,-0.01,-8.2,-0.19,-5.74
54.1,-0.06,0.03,-0.01,-8.2,-0.19,-5.74
54.22,-0.06,0.03,-0.02,-8.2,-0.18,-5.74
54.33,-0.07,0.03,-0.03,-8.2,-0.18,-5.74
54.45,-0.06,-0.0,0.0,-8.21,-0.18,-5.74
54.56,-0.05,-0.03,0.04,-8.21,-0.18,-5.74
54.68,-0.06,-0.02,0.03,-8.2,-0.19,-5.74
54.8,-0.07,0.0,0.02,-8.2,-0.19,-5.74
54.91,-0.07,0.02,0.01,-8.2,-0.19,-5.75
55.03,-0.08,0.03,-0.01,-8.2,-0.19,-5.75
55.15,-0.09,0.03,-0.02,-8.2,-0.19,-5.74
55.26,-0.09,0.03,-0.03,-8.2,-0.19,-5.74
55.38,-0.09,0.03,-0.03,-8.2,-0.19,-5.74
55.49,-0.09,0.03,-0.03,-8.2,-0.19,-5.74
55.61,-0.09,0.02,-0.03,-8.2,-0.19,-5.74
55.72,-0.08,0.01,-0.02,-8.2,-0.19,-5.74
55.84,-0.07,0.0,-0.01,-8.2,-0.18,-5.74
55.96,-0.07,-0.0,0.01,-8.2,-0.18,-5.74
56.07,-0.08,-0.01,0.02,-8.2,-0.18,-5.74
56.19,-0.08,0.0,0.01,-8.2,-0.18,-5.73
56.3,-0.08,0.01,-0.0,-8.2,-0.18,-5.73
56.42,-0.08,0.02,-0.01,-8.2,-0.18,-5.73
56.54,-0.07,0.02,-0.0,-8.2,-0.18,-5.74
56.65,-0.07,0.01,0.0,-8.2,-0.19,-5.74
56.77,-0.08,-0.0,-0.0,-8.2,-0.19,-5.74
56.88,-0.08,-0.01,0.0,-8.2,-0.19,-5.74
57.0,-0.08,-0.0,0.0,-8.21,-0.19,-5.75
57.12,-0.08,0.01,0.0,-8.21,-0.19,-5.75
57.23,-0.09,0.02,-0.01,-8.21,-0.19,-5.75
57.35,-0.09,0.02,-0.01,-8.2,-0.18,-5.75
57.46,-0.07,0.01,-0.0,-8.2,-0.18,-5.74
57.58,-0.06,0.01,0.01,-8.2,-0.18,-5.74
57.7,-0.07,0.02,0.01,-8.2,-0.18,-5.73
57.81,-0.07,0.02,-0.0,-8.2,-0.18,-5.73
57.93,-0.08,0.02,-0.02,-8.19,-0.18,-5.74
58.04,-0.09,0.02,-0.02,-8.19,-0.18,-5.74
58.16,-0.08,0.03,-0.02,-8.19,-0.18,-5.74
58.28,-0.08,0.03,-0.02,-8.2,-0.18,-5.74
58.39,-0.08,0.01,-0.03,-8.2,-0.18,-5.75
58.51,-0.08,0.01,-0.02,-8.2,-0.18,-5.75
58.62,-0.08,0.0,-0.01,-8.2,-0.18,-5.75
58.74,-0.09,-0.01,0.01,-8.19,-0.19,-5.75
58.86,-0.09,-0.0,0.03,-8.19,-0.19,-5.74
58.97,-0.08,0.0,0.03,-8.2,-0.19,-5.74
59.09,-0.08,0.0,0.01,-8.2,-0.19,-5.74
59.2,-0.09,0.0,-0.01,-8.2,-0.19,-5.74
59.32,-0.09,0.01,-0.02,-8.2,-0.18,-5.74
59.44,-0.08,0.01,-0.02,-8.2,-0.18,-5.74
59.55,-0.07,0.0,-0.03,-8.2,-0.18,-5.74
59.67,-0.07,-0.0,-0.02,-8.2,-0.18,-5.74
59.78,-0.07,0.01,-0.01,-8.2,-0.18,-5.74
59.9,-0.06,0.0,0.0,-8.2,-0.18,-5.74
60.02,-0.06,-0.0,0.0,-8.2,-0.18,-5.74
60.13,-0.07,-0.0,-0.02,-8.2,-0.18,-5.75
60.25,-0.07,-0.0,-0.04,-8.19,-0.18,-5.75
60.36,-0.07,-0.0,-0.04,-8.19,-0.18,-5.75
60.48,-0.07,-0.0,-0.03,-8.19,-0.18,-5.74
60.6,-0.07,0.0,-0.02,-8.2,-0.18,-5.74
60.71,-0.07,0.01,-0.01,-8.2,-0.18,-5.74
60.83,-0.07,0.02,-0.02,-8.2,-0.18,-5.74
60.94,-0.06,0.03,-0.02,-8.2,-0.18,-5.75
61.06,-0.06,0.04,-0.01,-8.2,-0.18,-5.76
61.18,-0.07,0.04,-0.01,-8.2,-0.18,-5.76
61.29,-0.07,0.05,-0.01,-8.2,-0.19,-5.75
61.41,-0.08,0.05,-0.01,-8.2,-0.19,-5.75
61.52,-0.08,0.04,-0.01,-8.2,-0.19,-5.74
61.64,-0.08,0.03,-0.02,-8.2,-0.19,-5.75
61.76,-0.07,0.03,-0.01,-8.2,-0.19,-5.75
61.87,-0.07,0.03,-0.01,-8.2,-0.18,-5.75
61.99,-0.07,0.03,-0.02,-8.2,-0.18,-5.75
62.1,-0.08,0.03,-0.02,-8.2,-0.18,-5.75
62.22,-0.09,0.03,-0.02,-8.2,-0.18,-5.75
62.34,-0.09,0.04,-0.03,-8.2,-0.18,-5.74
62.45,-0.09,0.05,-0.04,-8.2,-0.18,-5.74
62.57,-0.09,0.05,-0.04,-8.2,-0.18,-5.74
62.68,-0.08,0.04,-0.03,-8.2,-0.18,-5.74
62.8,-0.08,0.05,-0.02,-8.2,-0.18,-5.74
62.92,-0.08,0.04,-0.03,-8.2,-0.18,-5.74
63.03,-0.07,0.03,-0.02,-8.2,-0.18,-5.73
63.15,-0.07,0.03,-0.02,-8.2,-0.18,-5.74
63.26,-0.07,0.02,-0.03,-8.2,-0.18,-5.74
63.38,-0.08,0.01,-0.03,-8.2,-0.18,-5.74
63.5,-0.08,0.02,-0.02,-8.2,-0.18,-5.74
63.61,-0.08,0.03,-0.0,-8.2,-0.18,-5.74
63.73,-0.08,0.03,0.0,-8.2,-0.18,-5.74
63.84,-0.07,0.03,0.0,-8.2,-0.18,-5.74
63.96,-0.07,0.03,0.01,-8.2,-0.18,-5.75
64.07,-0.08,0.04,0.01,-8.2,-0.18,-5.75
64.19,-0.08,0.04,0.01,-8.21,-0.18,-5.74
64.31,-0.08,0.03,0.01,-8.2,-0.18,-5.74
64.42,-0.07,0.02,0.01,-8.2,-0.18,-5.74
64.54,-0.06,0.01,0.01,-8.2,-0.18,-5.74
64.65,-0.06,0.02,0.01,-8.2,-0.18,-5.74
64.77,-0.07,0.02,0.0,-8.2,-0.18,-5.74
64.89,-0.07,0.02,-0.0,-8.2,-0.18,-5.74
65.0,-0.07,0.01,-0.01,-8.2,-0.19,-5.74
65.12,-0.07,-0.0,-0.01,-8.2,-0.19,-5.74
65.23,-0.07,-0.01,-0.0,-8.2,-0.19,-5.74
65.35,-0.08,-0.0,-0.0,-8.2,-0.19,-5.74
65.47,-0.09,0.0,-0.01,-8.2,-0.19,-5.74
65.58,-0.09,0.01,-0.01,-8.21,-0.19,-5.74
65.7,-0.08,0.02,-0.01,-8.21,-0.19,-5.74
65.81,-0.07,0.03,-0.01,-8.21,-0.19,-5.74
65.93,-0.07,0.03,-0.01,-8.21,-0.19,-5.74
66.05,-0.08,0.03,-0.01,-8.2,-0.19,-5.74
66.16,-0.09,0.03,-0.01,-8.2,-0.19,-5.75
66.28,-0.09,0.02,-0.01,-8.2,-0.19,-5.75
66.39,-0.09,0.03,-0.0,-8.2,-0.19,-5.75
66.51,-0.08,0.04,0.01,-8.2,-0.19,-5.75
66.63,-0.07,0.04,0.02,-8.2,-0.19,-5.75
66.74,-0.07,0.02,0.02,-8.21,-0.19,-5.75
66.86,-0.07,0.0,0.01,-8.21,-0.18,-5.75
66.97,-0.07,0.0,-0.0,-8.21,-0.18,-5.75
67.09,-0.07,0.01,-0.02,-8.2,-0.18,-5.75
67.21,-0.07,0.01,-0.03,-8.2,-0.18,-5.74
67.32,-0.07,0.01,-0.03,-8.2,-0.18,-5.74
67.44,-0.07,0.01,-0.03,-8.2,-0.18,-5.74
67.55,-0.07,0.01,-0.03,-8.2,-0.18,-5.74
67.67,-0.07,0.01,-0.03,-8.2,-0.18,-5.74
67.79,-0.07,0.02,-0.03,-8.2,-0.18,-5.74
67.9,-0.07,0.02,-0.03,-8.2,-0.18,-5.74
68.02,-0.08,0.01,-0.02,-8.2,-0.18,-5.74
68.13,-0.08,0.01,-0.02,-8.2,-0.18,-5.74
68.25,-0.07,0.02,-0.02,-8.2,-0.18,-5.74
68.37,-0.06,0.02,-0.03,-8.2,-0.18,-5.74
68.48,-0.07,0.02,-0.02,-8.2,-0.18,-5.74
68.6,-0.08,0.01,-0.02,-8.2,-0.18,-5.74
68.71,-0.09,0.02,-0.02,-8.2,-0.19,-5.73
68.83,-0.09,0.02,-0.02,-8.2,-0.19,-5.74
68.95,-0.08,0.02,-0.02,-8.2,-0.19,-5.74
69.06,-0.07,0.02,-0.02,-8.2,-0.18,-5.74
69.18,-0.06,0.04,-0.02,-8.2,-0.18,-5.74
69.29,-0.06,0.04,-0.02,-8.2,-0.18,-5.75
69.41,-0.06,0.03,-0.01,-8.2,-0.18,-5.75
69.53,-0.07,0.02,-0.01,-8.2,-0.18,-5.74
69.64,-0.07,0.01,-0.02,-8.2,-0.18,-5.74
69.76,-0.07,0.0,-0.03,-8.2,-0.18,-5.74
69.87,-0.07,0.0,-0.03,-8.2,-0.18,-5.73
69.99,-0.06,0.01,-0.02,-8.2,-0.18,-5.73
70.11,-0.06,0.01,-0.01,-8.2,-0.18,-5.73
70.22,-0.07,0.01,-0.02,-8.2,-0.18,-5.74
70.34,-0.07,0.01,-0.02,-8.2,-0.18,-5.74
70.45,-0.07,0.02,-0.02,-8.2,-0.18,-5.74
70.57,-0.06,0.02,-0.03,-8.2,-0.18,-5.74
70.69,-0.06,0.03,-0.03,-8.19,-0.18,-5.74
70.8,-0.06,0.03,-0.04,-8.19,-0.18,-5.74
70.92,-0.05,0.02,-0.03,-8.19,-0.18,-5.74
71.03,-0.06,0.01,-0.02,-8.2,-0.18,-5.74
71.15,-0.06,0.0,-0.01,-8.2,-0.18,-5.74
71.27,-0.07,-0.0,-0.01,-8.2,-0.18,-5.75
71.38,-0.08,0.01,-0.02,-8.2,-0.18,-5.75
71.5,-0.08,0.03,-0.02,-8.2,-0.18,-5.75
71.61,-0.07,0.04,-0.02,-8.2,-0.18,-5.74
71.73,-0.07,0.03,-0.02,-8.2,-0.18,-5.74
71.85,-0.07,0.02,-0.01,-8.2,-0.18,-5.74
71.96,-0.08,0.02,-0.02,-8.2,-0.18,-5.74
72.08,-0.08,0.03,-0.05,-8.2,-0.18,-5.74
72.19,-0.08,0.03,-0.04,-8.2,-0.18,-5.74
72.31,-0.08,0.03,-0.02,-8.2,-0.18,-5.74
72.43,-0.08,0.01,0.0,-8.2,-0.18,-5.74
72.54,-0.08,0.0,0.0,-8.2,-0.18,-5.74
72.66,-0.08,-0.0,-0.01,-8.19,-0.18,-5.75
72.77,-0.08,0.0,-0.02,-8.19,-0.19,-5.75
72.89,-0.08,0.01,-0.04,-8.19,-0.19,-5.75
73.01,-0.08,0.02,-0.05,-8.19,-0.18,-5.74
73.12,-0.08,0.02,-0.05,-8.2,-0.18,-5.74
73.24,-0.08,0.03,-0.04,-8.2,-0.18,-5.74
73.35,-0.08,0.02,-0.03,-8.2,-0.18,-5.74
73.47,-0.08,0.01,-0.01,-8.2,-0.18,-5.74
73.59,-0.08,0.01,-0.01,-8.2,-0.18,-5.74
73.7,-0.08,0.01,-0.01,-8.2,-0.18,-5.75
73.82,-0.08,0.02,-0.0,-8.2,-0.18,-5.75
73.93,-0.08,0.02,0.01,-8.2,-0.18,-5.74
74.05,-0.08,0.02,0.0,-8.2,-0.19,-5.74
74.17,-0.08,0.02,0.0,-8.2,-0.19,-5.74
74.28,-0.08,0.01,-0.01,-8.2,-0.19,-5.74
74.4,-0.08,0.01,-0.01,-8.2,-0.18,-5.75
74.51,-0.08,0.01,-0.02,-8.19,-0.18,-5.74
74.63,-0.08,0.01,-0.02,-8.19,-0.18,-5.74
74.75,-0.08,0.01,-0.02,-8.19,-0.18,-5.73
74.86,-0.08,0.01,-0.02,-8.2,-0.18,-5.73
74.98,-0.07,0.02,-0.01,-8.2,-0.18,-5.72
75.09,-0.07,0.03,-0.01,-8.2,-0.18,-5.72
75.21,-0.06,0.03,-0.02,-8.2,-0.18,-5.72
75.33,-0.07,0.04,-0.02,-8.2,-0.18,-5.72
75.44,-0.07,0.05,-0.02,-8.2,-0.19,-5.73
75.56,-0.07,0.05,-0.03,-8.2,-0.19,-5.73
75.67,-0.07,0.05,-0.02,-8.2,-0.19,-5.73
75.79,-0.07,0.04,-0.03,-8.2,-0.19,-5.74
75.91,-0.07,0.04,-0.03,-8.2,-0.18,-5.74
76.02,-0.08,0.03,-0.03,-8.2,-0.18,-5.74
76.14,-0.07,0.02,-0.02,-8.2,-0.19,-5.74
76.25,-0.07,0.01,-0.02,-8.2,-0.19,-5.74
76.37,-0.06,0.02,-0.01,-8.2,-0.19,-5.74
76.48,-0.06,0.02,-0.01,-8.2,-0.19,-5.75
76.6,-0.07,0.03,-0.01,-8.2,-0.19,-5.75
76.72,-0.08,0.02,-0.01,-8.2,-0.19,-5.75
76.83,-0.08,0.01,-0.01,-8.2,-0.19,-5.75
76.95,-0.08,0.0,-0.02,-8.2,-0.19,-5.75
77.07,-0.07,0.0,-0.02,-8.2,-0.19,-5.75
77.18,-0.07,0.01,-0.02,-8.2,-0.19,-5.74
77.3,-0.07,0.02,-0.01,-8.2,-0.19,-5.74
77.41,-0.07,0.02,-0.02,-8.2,-0.18,-5.74
77.53,-0.07,0.01,-0.02,-8.2,-0.18,-5.74
77.64,-0.07,0.01,-0.02,-8.19,-0.18,-5.75
77.76,-0.08,0.01,-0.02,-8.2,-0.18,-5.75
77.88,-0.08,0.01,-0.02,-8.2,-0.18,-5.74
77.99,-0.09,0.02,-0.03,-8.2,-0.18,-5.74
78.11,-0.09,0.03,-0.04,-8.2,-0.18,-5.74
78.23,-0.08,0.03,-0.04,-8.2,-0.18,-5.74
78.34,-0.08,0.04,-0.03,-8.2,-0.18,-5.73
78.46,-0.08,0.03,-0.03,-8.2,-0.18,-5.73
78.57,-0.08,0.02,-0.03,-8.2,-0.18,-5.72
78.69,-0.08,0.01,-0.02,-8.19,-0.18,-5.73
78.81,-0.07,0.01,-0.02,-8.19,-0.18,-5.73
78.92,-0.07,0.02,-0.0,-8.19,-0.18,-5.74
79.04,-0.08,0.03,0.0,-8.2,-0.19,-5.75
79.15,-0.08,0.04,-0.01,-8.2,-0.19,-5.75
79.27,-0.08,0.04,-0.02,-8.2,-0.19,-5.75
79.38,-0.08,0.03,-0.03,-8.2,-0.19,-5.75
79.5,-0.08,0.02,-0.04,-8.2,-0.19,-5.74
79.62,-0.08,0.02,-0.04,-8.2,-0.19,-5.74
79.73,-0.07,0.02,-0.03,-8.2,-0.18,-5.73
79.85,-0.07,0.01,-0.02,-8.2,-0.18,-5.73
79.97,-0.07,0.01,-0.02,-8.2,-0.18,-5.74
80.08,-0.06,0.01,-0.02,-8.2,-0.18,-5.74
80.2,-0.06,0.01,-0.02,-8.2,-0.18,-5.75
80.31,-0.06,0.0,-0.02,-8.2,-0.18,-5.75
80.43,-0.06,0.0,-0.02,-8.2,-0.19,-5.75
80.54,-0.07,0.01,-0.01,-8.2,-0.19,-5.75
80.66,-0.08,0.01,0.0,-8.2,-0.18,-5.75
80.78,-0.08,0.01,0.01,-8.2,-0.18,-5.75
80.89,-0.09,0.01,0.0,-8.2,-0.18,-5.75
81.01,-0.09,0.01,0.0,-8.2,-0.18,-5.74
81.12,-0.09,0.01,-0.0,-8.2,-0.18,-5.73
81.24,-0.09,0.01,-0.01,-8.2,-0.19,-5.73
81.36,-0.09,0.02,-0.02,-8.2,-0.18,-5.73
81.47,-0.08,0.02,-0.01,-8.2,-0.18,-5.74
81.59,-0.08,0.02,-0.0,-8.2,-0.18,-5.74
81.7,-0.08,0.02,-0.0,-8.2,-0.18,-5.74
81.82,-0.08,0.02,-0.01,-8.2,-0.18,-5.74
81.94,-0.08,0.01,-0.01,-8.2,-0.18,-5.74
82.05,-0.09,0.01,-0.01,-8.2,-0.19,-5.74
82.17,-0.09,0.02,-0.03,-8.2,-0.19,-5.74
82.29,-0.1,0.04,-0.05,-8.2,-0.19,-5.75
82.4,-0.1,0.05,-0.05,-8.2,-0.19,-5.75
82.52,-0.1,0.06,-0.04,-8.2,-0.19,-5.74
82.63,-0.08,0.05,-0.03,-8.2,-0.18,-5.74
82.75,-0.08,0.03,-0.01,-8.21,-0.18,-5.74
82.86,-0.08,0.02,-0.0,-8.21,-0.18,-5.73
82.98,-0.09,0.02,-0.01,-8.21,-0.18,-5.73
83.1,-0.09,0.02,-0.01,-8.2,-0.18,-5.73
83.21,-0.08,0.03,-0.01,-8.2,-0.18,-5.73
83.33,-0.08,0.04,-0.01,-8.2,-0.18,-5.73
83.44,-0.08,0.04,-0.03,-8.2,-0.18,-5.73
83.56,-0.08,0.04,-0.06,-8.2,-0.19,-5.73
83.68,-0.08,0.02,-0.05,-8.2,-0.19,-5.74
83.79,-0.07,0.01,-0.03,-8.2,-0.19,-5.75
83.91,-0.07,0.02,-0.0,-8.2,-0.19,-5.75
84.02,-0.07,0.03,-0.0,-8.2,-0.18,-5.75
84.14,-0.09,0.05,-0.03,-8.2,-0.18,-5.74
84.26,-0.1,0.06,-0.05,-8.2,-0.18,-5.74
84.37,-0.09,0.05,-0.03,-8.2,-0.18,-5.74
84.49,-0.08,0.03,0.01,-8.2,-0.18,-5.74
84.6,-0.08,0.02,0.04,-8.2,-0.18,-5.74
84.72,-0.07,0.01,0.04,-8.2,-0.18,-5.74
84.84,-0.07,0.01,0.02,-8.2,-0.18,-5.74
84.95,-0.07,0.01,-0.01,-8.2,-0.18,-5.74
85.07,-0.07,0.01,-0.01,-8.2,-0.18,-5.74
85.18,-0.07,0.01,-0.01,-8.2,-0.18,-5.74
85.3,-0.07,0.01,-0.02,-8.2,-0.18,-5.74
85.42,-0.07,0.01,-0.03,-8.2,-0.18,-5.74
85.53,-0.07,0.02,-0.03,-8.2,-0.18,-5.74
85.65,-0.07,0.02,-0.03,-8.2,-0.18,-5.74
85.76,-0.07,0.03,-0.03,-8.2,-0.19,-5.74
85.88,-0.08,0.04,-0.05,-8.2,-0.19,-5.74
86.0,-0.08,0.04,-0.06,-8.2,-0.18,-5.74
86.11,-0.08,0.04,-0.06,-8.2,-0.18,-5.73
86.23,-0.08,0.02,-0.04,-8.2,-0.19,-5.73
86.34,-0.08,0.02,-0.04,-8.2,-0.19,-5.73
86.46,-0.08,0.03,-0.05,-8.2,-0.19,-5.73
86.58,-0.09,0.04,-0.06,-8.2,-0.19,-5.73
86.69,-0.09,0.03,-0.04,-8.2,-0.19,-5.74
86.81,-0.09,0.02,-0.0,-8.2,-0.19,-5.74
86.92,-0.08,0.01,0.01,-8.2,-0.18,-5.74
87.04,-0.08,0.01,-0.0,-8.2,-0.18,-5.74
87.16,-0.07,0.01,0.0,-8.2,-0.18,-5.74
87.27,-0.07,0.01,0.0,-8.2,-0.18,-5.74
87.39,-0.07,0.03,-0.0,-8.2,-0.19,-5.74
87.5,-0.08,0.03,-0.01,-8.2,-0.19,-5.75
87.62,-0.08,0.02,-0.0,-8.2,-0.19,-5.75
87.74,-0.09,0.01,0.0,-8.2,-0.19,-5.74
87.85,-0.09,0.01,0.0,-8.2,-0.19,-5.74
87.97,-0.08,0.01,-0.0,-8.2,-0.19,-5.73
88.08,-0.07,0.0,-0.01,-8.2,-0.19,-5.74
88.2,-0.07,0.01,-0.03,-8.2,-0.19,-5.74
88.31,-0.06,0.02,-0.03,-8.2,-0.19,-5.75
88.43,-0.06,0.02,-0.02,-8.2,-0.18,-5.75
88.55,-0.07,0.02,-0.01,-8.2,-0.18,-5.74
88.66,-0.08,0.02,-0.02,-8.2,-0.18,-5.74
88.78,-0.08,0.03,-0.02,-8.19,-0.18,-5.74
88.89,-0.08,0.03,-0.02,-8.2,-0.19,-5.74
89.01,-0.09,0.02,-0.03,-8.2,-0.19,-5.74
89.13,-0.09,0.02,-0.03,-8.2,-0.19,-5.74
89.24,-0.09,0.03,-0.02,-8.2,-0.19,-5.74
89.36,-0.08,0.05,-0.01,-8.2,-0.18,-5.74
89.48,-0.07,0.06,-0.02,-8.2,-0.18,-5.74
89.59,-0.06,0.04,-0.01,-8.2,-0.18,-5.74
89.71,-0.06,-0.01,0.01,-8.2,-0.18,-5.74
89.82,-0.07,-0.0,-0.02,-8.2,-0.18,-5.74
89.94,-0.08,0.05,-0.06,-8.2,-0.18,-5.74
90.05,-0.08,0.08,-0.08,-8.2,-0.18,-5.74
90.17,-0.08,0.09,-0.09,-8.2,-0.18,-5.74
90.29,-0.08,0.08,-0.09,-8.2,-0.19,-5.74
90.4,-0.07,0.05,-0.05,-8.2,-0.19,-5.74
90.52,-0.07,0.02,0.0,-8.2,-0.19,-5.75
90.63,-0.07,0.02,0.02,-8.2,-0.19,-5.75
90.75,-0.07,0.01,0.03,-8.19,-0.19,-5.75
90.87,-0.07,-0.02,0.06,-8.19,-0.19,-5.74
90.98,-0.06,-0.01,0.03,-8.2,-0.19,-5.74
91.1,-0.06,0.01,0.0,-8.2,-0.18,-5.74
91.21,-0.07,0.02,-0.01,-8.2,-0.18,-5.74
91.33,-0.07,0.03,-0.04,-8.2,-0.19,-5.74
91.45,-0.08,0.04,-0.04,-8.2,-0.19,-5.74
91.56,-0.07,0.03,0.0,-8.2,-0.19,-5.74
91.68,-0.07,0.03,0.03,-8.2,-0.19,-5.74
91.79,-0.07,0.03,0.02,-8.2,-0.19,-5.75
91.91,-0.07,0.02,0.01,-8.2,-0.18,-5.75
92.03,-0.08,0.0,0.0,-8.2,-0.18,-5.75
92.14,-0.08,0.01,-0.02,-8.2,-0.18,-5.75
92.26,-0.08,0.02,-0.03,-8.2,-0.18,-5.75
92.37,-0.08,0.03,-0.04,-8.2,-0.19,-5.75
92.49,-0.08,0.03,-0.03,-8.2,-0.19,-5.75
92.61,-0.08,0.03,-0.03,-8.2,-0.19,-5.74
92.72,-0.08,0.03,-0.02,-8.2,-0.19,-5.74
92.84,-0.08,0.0,0.0,-8.2,-0.19,-5.74
92.95,-0.07,-0.02,0.02,-8.2,-0.19,-5.75
93.07,-0.08,-0.02,0.02,-8.2,-0.19,-5.75
93.19,-0.08,-0.0,0.02,-8.2,-0.19,-5.74
93.3,-0.08,0.01,-0.0,-8.2,-0.19,-5.74
93.42,-0.08,0.02,-0.03,-8.2,-0.19,-5.75
93.53,-0.07,0.02,-0.05,-8.2,-0.19,-5.75
93.65,-0.06,0.01,-0.03,-8.2,-0.19,-5.74
93.77,-0.06,-0.0,0.01,-8.2,-0.19,-5.74
93.88,-0.06,-0.02,0.04,-8.21,-0.19,-5.74
94.0,-0.06,-0.02,0.03,-8.2,-0.19,-5.74
94.11,-0.07,-0.01,0.03,-8.2,-0.19,-5.74
94.23,-0.08,0.01,0.01,-8.2,-0.19,-5.74
94.35,-0.08,0.02,-0.0,-8.2,-0.19,-5.74
94.46,-0.08,0.02,-0.01,-8.2,-0.19,-5.74
94.58,-0.09,0.02,-0.02,-8.2,-0.19,-5.74
94.69,-0.09,0.03,-0.02,-8.2,-0.19,-5.74
94.81,-0.08,0.03,-0.02,-8.19,-0.19,-5.74
94.93,-0.08,0.02,-0.02,-8.2,-0.19,-5.74
95.04,-0.08,0.01,-0.01,-8.2,-0.19,-5.74
95.16,-0.08,0.01,-0.0,-8.2,-0.19,-5.74
95.27,-0.08,0.0,-0.01,-8.19,-0.19,-5.75
95.39,-0.07,0.0,-0.01,-8.19,-0.18,-5.74
95.51,-0.07,0.0,-0.01,-8.2,-0.18,-5.74
95.62,-0.08,0.0,-0.01,-8.2,-0.18,-5.74
95.74,-0.08,0.0,-0.02,-8.2,-0.19,-5.74
95.85,-0.09,-0.0,-0.02,-8.2,-0.19,-5.74
95.97,-0.08,0.0,-0.02,-8.2,-0.19,-5.74
96.09,-0.07,0.01,-0.02,-8.2,-0.19,-5.74
96.2,-0.06,0.01,0.0,-8.2,-0.18,-5.75
96.32,-0.06,0.02,0.01,-8.2,-0.18,-5.75
96.43,-0.07,0.02,-0.01,-8.2,-0.19,-5.74
96.55,-0.07,0.03,-0.01,-8.2,-0.19,-5.74
96.66,-0.08,0.02,0.0,-8.2,-0.18,-5.74
96.78,-0.09,0.02,-0.02,-8.2,-0.18,-5.74
96.9,-0.09,0.03,-0.04,-8.2,-0.18,-5.74
97.01,-0.09,0.03,-0.05,-8.2,-0.18,-5.74
97.13,-0.08,0.02,-0.04,-8.19,-0.18,-5.74
97.25,-0.07,0.02,-0.03,-8.19,-0.18,-5.74
97.36,-0.07,0.03,-0.03,-8.19,-0.19,-5.74
97.48,-0.07,0.01,-0.02,-8.19,-0.19,-5.74
97.59,-0.08,0.01,-0.01,-8.19,-0.19,-5.74
97.71,-0.09,0.02,-0.02,-8.2,-0.19,-5.74
97.82,-0.09,0.02,-0.03,-8.2,-0.19,-5.74
97.94,-0.09,0.02,-0.03,-8.2,-0.19,-5.74
98.06,-0.09,0.03,-0.02,-8.2,-0.19,-5.74
98.17,-0.08,0.04,-0.02,-8.2,-0.18,-5.74
98.29,-0.08,0.03,-0.01,-8.2,-0.18,-5.74
98.4,-0.09,0.02,-0.01,-8.2,-0.18,-5.74
98.52,-0.09,0.02,-0.02,-8.2,-0.18,-5.74
98.64,-0.09,0.01,-0.03,-8.2,-0.18,-5.73
98.75,-0.08,0.0,-0.03,-8.2,-0.18,-5.73
98.87,-0.09,0.01,-0.03,-8.2,-0.18,-5.73
98.98,-0.1,0.02,-0.03,-8.2,-0.18,-5.73
99.1,-0.1,0.03,-0.03,-8.2,-0.18,-5.73
99.22,-0.09,0.02,-0.02,-8.2,-0.18,-5.73
99.33,-0.08,0.02,-0.01,-8.2,-0.18,-5.73
99.45,-0.07,0.02,-0.01,-8.2,-0.19,-5.74
99.56,-0.07,0.03,-0.03,-8.21,-0.19,-5.74
99.68,-0.08,0.04,-0.05,-8.21,-0.19,-5.75
99.8,-0.08,0.04,-0.05,-8.21,-0.19,-5.74
99.91,-0.08,0.03,-0.03,-8.2,-0.18,-5.74
100.03,-0.09,0.03,-0.03,-8.2,-0.18,-5.74
100.15,-0.09,0.03,-0.03,-8.2,-0.18,-5.74
100.26,-0.09,0.03,-0.02,-8.2,-0.19,-5.74
100.38,-0.1,0.02,-0.01,-8.2,-0.19,-5.74
100.49,-0.1,0.01,-0.03,-8.2,-0.19,-5.74
100.61,-0.1,0.01,-0.04,-8.2,-0.18,-5.74
100.73,-0.1,0.02,-0.05,-8.2,-0.19,-5.74
100.84,-0.09,0.04,-0.05,-8.2,-0.19,-5.73
100.96,-0.09,0.04,-0.04,-8.2,-0.19,-5.73
101.07,-0.09,0.04,-0.04,-8.2,-0.19,-5.73
101.19,-0.08,0.04,-0.02,-8.2,-0.19,-5.74
101.31,-0.09,0.03,0.0,-8.2,-0.19,-5.75
101.42,-0.09,0.02,0.01,-8.2,-0.19,-5.75
101.54,-0.09,0.02,0.01,-8.2,-0.19,-5.74
101.65,-0.08,0.01,0.01,-8.21,-0.19,-5.74
101.77,-0.08,-0.0,0.0,-8.21,-0.19,-5.74
101.89,-0.08,0.0,-0.01,-8.21,-0.19,-5.73
102.0,-0.08,0.02,-0.01,-8.2,-0.19,-5.73
102.12,-0.08,0.02,-0.02,-8.2,-0.19,-5.74
102.24,-0.08,0.03,-0.02,-8.2,-0.19,-5.74
102.35,-0.07,0.04,-0.02,-8.2,-0.19,-5.74
102.47,-0.06,0.04,-0.02,-8.2,-0.19,-5.73
102.58,-0.07,0.03,-0.03,-8.2,-0.19,-5.73
102.7,-0.07,0.03,-0.03,-8.2,-0.19,-5.74
102.82,-0.08,0.03,-0.03,-8.2,-0.19,-5.74
102.93,-0.08,0.02,-0.01,-8.2,-0.19,-5.74
103.05,-0.09,0.01,0.0,-8.2,-0.19,-5.74
103.16,-0.09,0.01,0.01,-8.2,-0.19,-5.74
103.28,-0.08,0.01,0.01,-8.2,-0.19,-5.75
103.4,-0.08,0.02,0.01,-8.2,-0.19,-5.75
103.51,-0.08,0.01,0.0,-8.2,-0.19,-5.74
103.63,-0.09,0.02,-0.02,-8.2,-0.19,-5.74
103.75,-0.09,0.03,-0.05,-8.2,-0.19,-5.74
103.86,-0.08,0.04,-0.03,-8.2,-0.19,-5.74
103.98,-0.07,0.04,-0.01,-8.2,-0.19,-5.75
104.09,-0.06,0.03,-0.01,-8.2,-0.19,-5.75
104.21,-0.06,0.03,-0.01,-8.2,-0.18,-5.75
104.33,-0.07,0.03,-0.0,-8.2,-0.19,-5.75
104.44,-0.08,0.03,-0.0,-8.2,-0.19,-5.75
104.56,-0.08,0.02,-0.0,-8.2,-0.19,-5.74
104.68,-0.08,0.01,-0.0,-8.19,-0.19,-5.74
104.79,-0.09,-0.0,0.0,-8.19,-0.19,-5.73
104.91,-0.09,-0.0,-0.01,-8.19,-0.19,-5.73
105.02,-0.09,0.0,-0.03,-8.19,-0.19,-5.73
105.14,-0.09,0.01,-0.03,-8.2,-0.19,-5.74
105.25,-0.08,0.02,-0.03,-8.2,-0.18,-5.74
105.37,-0.08,0.02,-0.03,-8.2,-0.18,-5.74
105.49,-0.08,0.02,-0.04,-8.2,-0.18,-5.74
105.6,-0.08,0.01,-0.03,-8.21,-0.19,-5.75
105.72,-0.08,0.01,-0.02,-8.21,-0.19,-5.74
105.84,-0.08,-0.0,-0.01,-8.21,-0.19,-5.74
105.95,-0.09,-0.0,-0.01,-8.2,-0.19,-5.75
106.07,-0.09,-0.0,-0.0,-8.2,-0.19,-5.74
106.18,-0.09,0.0,0.01,-8.2,-0.19,-5.73
106.3,-0.08,0.01,0.01,-8.19,-0.19,-5.73
106.42,-0.08,0.03,0.0,-8.19,-0.19,-5.73
106.53,-0.08,0.03,-0.0,-8.19,-0.18,-5.73
106.65,-0.08,0.03,-0.01,-8.2,-0.18,-5.74
106.77,-0.08,0.02,-0.02,-8.2,-0.18,-5.74
106.88,-0.08,0.01,-0.02,-8.2,-0.18,-5.74
107.0,-0.08,0.02,-0.03,-8.2,-0.18,-5.75
107.11,-0.08,0.02,-0.03,-8.2,-0.18,-5.75
107.23,-0.08,0.02,-0.03,-8.2,-0.18,-5.75
107.35,-0.08,0.02,-0.03,-8.2,-0.19,-5.74
107.46,-0.08,0.02,-0.03,-8.2,-0.19,-5.75
107.58,-0.07,0.02,-0.0,-8.21,-0.19,-5.75
107.7,-0.06,0.0,0.02,-8.2,-0.19,-5.74
107.81,-0.06,-0.01,0.02,-8.2,-0.19,-5.74
107.93,-0.07,-0.0,-0.0,-8.2,-0.18,-5.74
108.04,-0.07,0.01,-0.0,-8.2,-0.18,-5.74
108.16,-0.07,0.0,-0.0,-8.2,-0.18,-5.74
108.28,-0.07,-0.0,-0.01,-8.2,-0.18,-5.74
108.39,-0.07,-0.01,-0.0,-8.2,-0.18,-5.74
108.51,-0.07,-0.0,-0.0,-8.2,-0.18,-5.74
108.62,-0.07,-0.01,-0.01,-8.2,-0.18,-5.74
108.74,-0.08,-0.01,-0.01,-8.2,-0.18,-5.74
108.86,-0.08,-0.0,-0.02,-8.2,-0.18,-5.74
108.97,-0.08,0.0,-0.04,-8.2,-0.19,-5.74
109.09,-0.08,0.01,-0.04,-8.21,-0.19,-5.74
109.21,-0.08,0.01,-0.01,-8.21,-0.19,-5.75
109.32,-0.07,0.01,0.01,-8.21,-0.19,-5.75
109.44,-0.08,0.02,-0.01,-8.21,-0.19,-5.75
109.55,-0.08,0.02,-0.03,-8.2,-0.18,-5.75
109.67,-0.08,0.01,-0.03,-8.2,-0.18,-5.74
109.79,-0.08,0.01,-0.03,-8.2,-0.18,-5.74
109.9,-0.07,0.01,-0.02,-8.2,-0.19,-5.74
110.02,-0.07,0.01,-0.01,-8.21,-0.19,-5.74
110.14,-0.06,-0.0,-0.0,-8.21,-0.19,-5.74
110.25,-0.06,0.0,-0.02,-8.2,-0.19,-5.74
110.37,-0.07,0.02,-0.04,-8.2,-0.19,-5.74
110.48,-0.08,0.04,-0.05,-8.2,-0.19,-5.74
110.6,-0.07,0.06,-0.04,-8.2,-0.18,-5.74
110.72,-0.07,0.09,-0.05,-8.2,-0.18,-5.74
110.83,-0.08,0.12,-0.1,-8.2,-0.19,-5.74
110.95,-0.08,0.08,-0.1,-8.2,-0.19,-5.74
111.07,-0.07,0.02,-0.07,-8.2,-0.18,-5.74
111.18,-0.06,0.01,-0.06,-8.2,-0.18,-5.74
111.3,-0.07,0.02,-0.05,-8.2,-0.18,-5.73
111.41,-0.07,0.02,-0.05,-8.2,-0.18,-5.73
111.53,-0.07,0.03,-0.05,-8.2,-0.18,-5.73
111.65,-0.07,0.04,-0.04,-8.2,-0.18,-5.73
111.76,-0.06,0.03,-0.03,-8.2,-0.18,-5.73
111.88,-0.05,0.01,-0.03,-8.2,-0.18,-5.73
111.99,-0.05,-0.0,-0.01,-8.2,-0.18,-5.73
112.11,-0.05,0.0,-0.01,-8.2,-0.18,-5.73
112.23,-0.06,0.02,-0.03,-8.2,-0.19,-5.73
112.34,-0.07,0.02,-0.05,-8.2,-0.19,-5.73
112.46,-0.08,0.03,-0.06,-8.2,-0.18,-5.74
112.58,-0.08,0.03,-0.04,-8.2,-0.19,-5.74
112.69,-0.07,0.03,-0.02,-8.2,-0.19,-5.74
112.81,-0.07,0.03,-0.01,-8.2,-0.19,-5.74
112.92,-0.07,0.01,0.01,-8.2,-0.19,-5.74
113.04,-0.06,-0.01,0.03,-8.2,-0.18,-5.74
113.16,-0.06,-0.02,0.03,-8.2,-0.18,-5.74
113.27,-0.06,-0.02,0.02,-8.2,-0.18,-5.74
113.39,-0.08,0.01,-0.01,-8.2,-0.19,-5.74
113.5,-0.09,0.03,-0.03,-8.2,-0.18,-5.73
113.62,-0.09,0.05,-0.04,-8.2,-0.18,-5.73
113.74,-0.1,0.05,-0.03,-8.2,-0.18,-5.74
113.85,-0.1,0.05,-0.03,-8.2,-0.18,-5.74
113.97,-0.1,0.06,-0.03,-8.2,-0.19,-5.75
114.08,-0.1,0.06,-0.03,-8.2,-0.19,-5.75
114.2,-0.09,0.05,-0.02,-8.2,-0.19,-5.74
114.32,-0.07,0.02,-0.02,-8.19,-0.19,-5.74
114.43,-0.06,0.01,-0.02,-8.2,-0.19,-5.73
114.55,-0.06,0.01,-0.03,-8.2,-0.19,-5.73
114.67,-0.06,0.02,-0.01,-8.2,-0.19,-5.73
114.78,-0.06,0.02,0.0,-8.2,-0.19,-5.74
114.9,-0.07,0.01,0.01,-8.2,-0.19,-5.74
115.01,-0.08,-0.0,-0.0,-8.2,-0.19,-5.74
115.13,-0.08,0.01,-0.02,-8.21,-0.19,-5.75
115.25,-0.08,0.02,-0.04,-8.21,-0.19,-5.75
115.36,-0.09,0.03,-0.04,-8.21,-0.19,-5.75
115.48,-0.09,0.03,-0.04,-8.21,-0.19,-5.75
115.6,-0.1,0.02,-0.03,-8.2,-0.19,-5.74
115.71,-0.09,0.01,-0.02,-8.2,-0.19,-5.74
115.83,-0.09,0.01,-0.01,-8.2,-0.19,-5.73
115.94,-0.08,-0.0,0.0,-8.2,-0.19,-5.74
116.06,-0.07,-0.01,0.02,-8.2,-0.19,-5.74
116.18,-0.07,0.01,0.01,-8.2,-0.19,-5.74
116.29,-0.07,0.02,0.0,-8.2,-0.19,-5.75
116.41,-0.07,0.03,-0.01,-8.2,-0.18,-5.75
116.52,-0.08,0.03,-0.02,-8.19,-0.18,-5.74
116.64,-0.08,0.02,-0.03,-8.19,-0.18,-5.74
116.76,-0.08,0.0,-0.02,-8.19,-0.18,-5.74
116.87,-0.08,-0.01,-0.02,-8.2,-0.18,-5.74
116.99,-0.08,0.0,-0.02,-8.2,-0.18,-5.75
117.11,-0.08,0.02,-0.01,-8.2,-0.19,-5.75
117.22,-0.07,0.02,-0.01,-8.2,-0.19,-5.75
117.34,-0.06,0.01,-0.01,-8.2,-0.18,-5.74
117.45,-0.06,-0.0,-0.02,-8.2,-0.18,-5.74
117.57,-0.07,-0.01,-0.02,-8.2,-0.18,-5.74
117.69,-0.06,-0.0,-0.02,-8.2,-0.19,-5.74
117.8,-0.06,0.01,-0.02,-8.2,-0.19,-5.74
117.92,-0.05,0.02,-0.02,-8.2,-0.19,-5.74
118.04,-0.05,0.02,-0.02,-8.2,-0.19,-5.74
118.15,-0.06,0.01,-0.02,-8.2,-0.19,-5.74
118.27,-0.07,-0.0,-0.02,-8.2,-0.19,-5.74
118.38,-0.09,-0.0,-0.0,-8.2,-0.19,-5.74
118.5,-0.1,0.0,0.01,-8.21,-0.19,-5.74
118.62,-0.1,0.01,0.0,-8.21,-0.18,-5.74
118.73,-0.1,0.01,-0.0,-8.21,-0.18,-5.74
118.85,-0.09,0.01,-0.0,-8.21,-0.18,-5.75
118.96,-0.08,0.0,-0.01,-8.2,-0.18,-5.75
119.08,-0.08,0.01,-0.02,-8.2,-0.18,-5.75
119.2,-0.08,0.02,-0.02,-8.2,-0.18,-5.75
119.31,-0.08,0.03,-0.03,-8.2,-0.18,-5.75
119.43,-0.07,0.03,-0.03,-8.2,-0.19,-5.74
119.55,-0.08,0.03,-0.03,-8.19,-0.19,-5.74
119.66,-0.09,0.04,-0.03,-8.19,-0.19,-5.73
119.78,-0.09,0.04,-0.04,-8.2,-0.18,-5.73
119.89,-0.09,0.03,-0.04,-8.2,-0.18,-5.73
120.01,-0.08,0.01,-0.02,-8.2,-0.19,-5.73
120.13,-0.08,0.01,-0.0,-8.2,-0.19,-5.73
120.24,-0.08,0.01,-0.0,-8.2,-0.19,-5.73
120.36,-0.08,0.01,-0.01,-8.2,-0.19,-5.73
120.47,-0.08,0.0,-0.01,-8.2,-0.19,-5.74
120.59,-0.08,0.0,-0.02,-8.2,-0.19,-5.74
120.71,-0.08,-0.0,-0.02,-8.2,-0.19,-5.74
120.82,-0.08,-0.0,-0.01,-8.2,-0.19,-5.74
120.94,-0.08,-0.0,-0.01,-8.2,-0.18,-5.74
121.06,-0.07,0.01,-0.01,-8.2,-0.18,-5.75
121.17,-0.07,0.01,-0.02,-8.2,-0.18,-5.75
121.29,-0.08,0.01,-0.03,-8.21,-0.18,-5.75
121.4,-0.09,0.01,-0.02,-8.2,-0.18,-5.76
121.52,-0.09,0.0,-0.01,-8.2,-0.18,-5.75
121.64,-0.09,0.01,0.0,-8.2,-0.19,-5.75
121.75,-0.08,0.0,0.01,-8.2,-0.19,-5.74
121.87,-0.08,-0.01,0.01,-8.2,-0.18,-5.74
121.99,-0.08,0.0,-0.0,-8.19,-0.18,-5.74
122.1,-0.09,0.02,-0.01,-8.2,-0.18,-5.74
122.22,-0.09,0.04,-0.02,-8.2,-0.18,-5.74
122.33,-0.08,0.05,-0.03,-8.2,-0.18,-5.73
122.45,-0.08,0.05,-0.03,-8.21,-0.18,-5.73
122.57,-0.07,0.04,-0.03,-8.21,-0.19,-5.73
122.68,-0.07,0.02,-0.02,-8.21,-0.19,-5.73
122.8,-0.07,0.01,-0.01,-8.2,-0.19,-5.73
122.91,-0.07,0.01,-0.02,-8.2,-0.18,-5.73
123.03,-0.07,0.02,-0.03,-8.19,-0.18,-5.74
123.15,-0.07,0.03,-0.02,-8.19,-0.18,-5.74
123.26,-0.07,0.03,-0.01,-8.2,-0.18,-5.74
123.38,-0.07,0.04,-0.01,-8.2,-0.18,-5.74
123.5,-0.07,0.04,-0.02,-8.2,-0.19,-5.74
123.61,-0.07,0.04,-0.03,-8.2,-0.19,-5.74
123.73,-0.06,0.02,-0.03,-8.2,-0.19,-5.75
123.84,-0.07,0.01,-0.03,-8.21,-0.19,-5.75
123.96,-0.07,0.01,-0.02,-8.2,-0.19,-5.75
124.08,-0.07,0.01,-0.01,-8.2,-0.19,-5.75
124.19,-0.07,0.01,-0.01,-8.2,-0.19,-5.74
124.31,-0.07,0.02,-0.01,-8.2,-0.19,-5.74
124.43,-0.07,0.02,-0.01,-8.2,-0.19,-5.74
124.54,-0.08,0.02,-0.02,-8.2,-0.19,-5.73
124.66,-0.08,0.02,-0.03,-8.2,-0.19,-5.73
124.77,-0.08,0.02,-0.03,-8.2,-0.18,-5.73
124.89,-0.08,0.02,-0.03,-8.2,-0.18,-5.73
125.01,-0.08,0.02,-0.04,-8.2,-0.18,-5.73
125.12,-0.09,0.02,-0.03,-8.2,-0.18,-5.74
125.24,-0.08,0.02,-0.01,-8.2,-0.18,-5.74
125.36,-0.08,0.02,0.01,-8.2,-0.18,-5.75
125.47,-0.08,0.02,0.02,-8.2,-0.19,-5.75
125.59,-0.08,0.02,0.01,-8.21,-0.19,-5.75
125.7,-0.07,0.01,0.01,-8.21,-0.19,-5.75
125.82,-0.07,0.01,0.01,-8.21,-0.19,-5.74
125.93,-0.07,0.0,0.01,-8.21,-0.18,-5.74
126.05,-0.06,-0.0,0.01,-8.2,-0.18,-5.74
126.17,-0.06,-0.0,0.01,-8.2,-0.18,-5.74
126.28,-0.06,0.01,0.0,-8.2,-0.18,-5.75
126.4,-0.07,0.02,-0.01,-8.2,-0.18,-5.74
126.52,-0.08,0.03,-0.02,-8.2,-0.19,-5.74
126.63,-0.08,0.02,-0.03,-8.2,-0.19,-5.74
126.75,-0.07,0.01,-0.03,-8.2,-0.19,-5.74
126.86,-0.06,0.01,-0.03,-8.2,-0.19,-5.74
126.98,-0.05,0.01,-0.03,-8.2,-0.19,-5.74
127.1,-0.05,0.01,-0.03,-8.2,-0.19,-5.74
127.21,-0.06,0.02,-0.03,-8.2,-0.19,-5.74
127.33,-0.06,0.04,-0.03,-8.2,-0.2,-5.74
127.44,-0.06,0.04,-0.03,-8.2,-0.2,-5.74
127.56,-0.07,0.03,-0.02,-8.2,-0.2,-5.74
127.68,-0.08,0.02,-0.02,-8.2,-0.2,-5.74
127.79,-0.08,0.01,-0.01,-8.2,-0.19,-5.73
127.91,-0.08,0.01,-0.01,-8.2,-0.18,-5.73
128.03,-0.08,0.01,-0.03,-8.2,-0.18,-5.73
128.14,-0.08,0.01,-0.04,-8.2,-0.18,-5.73
128.26,-0.08,0.01,-0.04,-8.2,-0.18,-5.73
128.37,-0.08,0.01,-0.03,-8.2,-0.18,-5.73
128.49,-0.09,0.0,-0.02,-8.2,-0.18,-5.74
128.61,-0.09,0.0,-0.01,-8.2,-0.18,-5.74
128.72,-0.09,0.01,0.0,-8.2,-0.18,-5.74
128.84,-0.09,0.02,0.01,-8.2,-0.18,-5.74
128.96,-0.08,0.03,0.0,-8.2,-0.18,-5.74
129.07,-0.07,0.04,-0.0,-8.2,-0.19,-5.74
129.19,-0.08,0.05,-0.01,-8.2,-0.19,-5.74
129.3,-0.08,0.05,-0.03,-8.2,-0.19,-5.74
129.42,-0.08,0.04,-0.04,-8.2,-0.19,-5.74
129.54,-0.08,0.03,-0.03,-8.2,-0.19,-5.74
129.65,-0.08,0.01,-0.02,-8.2,-0.19,-5.74
129.77,-0.09,0.0,-0.02,-8.2,-0.19,-5.74
129.88,-0.08,-0.0,-0.01,-8.21,-0.19,-5.74
130.0,-0.08,0.0,-0.01,-8.21,-0.18,-5.74
130.12,-0.08,0.02,-0.02,-8.2,-0.18,-5.74
130.23,-0.09,0.04,-0.03,-8.2,-0.18,-5.75
130.35,-0.09,0.04,-0.03,-8.2,-0.18,-5.75
130.47,-0.09,0.03,-0.02,-8.2,-0.18,-5.75
130.58,-0.09,0.02,-0.01,-8.2,-0.19,-5.75
130.7,-0.09,0.01,-0.01,-8.2,-0.19,-5.74
130.81,-0.09,0.0,-0.01,-8.2,-0.19,-5.74
130.93,-0.08,-0.0,0.0,-8.2,-0.19,-5.74
131.05,-0.07,-0.0,0.01,-8.2,-0.19,-5.74
131.16,-0.07,0.01,-0.01,-8.2,-0.19,-5.74
131.28,-0.07,0.01,-0.01,-8.21,-0.19,-5.74
131.39,-0.07,0.01,-0.01,-8.21,-0.18,-5.74
131.51,-0.07,0.01,-0.01,-8.2,-0.18,-5.74
131.63,-0.07,0.01,-0.01,-8.2,-0.18,-5.74
131.74,-0.07,0.01,-0.01,-8.2,-0.19,-5.73
131.86,-0.07,0.01,-0.01,-8.2,-0.19,-5.73
131.98,-0.07,0.02,-0.02,-8.2,-0.19,-5.73
132.09,-0.07,0.03,-0.02,-8.2,-0.19,-5.73
132.21,-0.08,0.02,-0.02,-8.2,-0.19,-5.73
132.32,-0.09,0.02,-0.02,-8.2,-0.19,-5.74
132.44,-0.09,0.01,-0.02,-8.2,-0.18,-5.74
132.56,-0.09,-0.0,-0.01,-8.2,-0.18,-5.75
132.67,-0.09,-0.0,-0.0,-8.2,-0.18,-5.75
132.79,-0.1,0.0,0.0,-8.2,-0.17,-5.75
132.91,-0.1,0.01,-0.01,-8.2,-0.17,-5.74
133.02,-0.1,0.02,-0.01,-8.21,-0.18,-5.74
133.14,-0.09,0.02,-0.02,-8.21,-0.18,-5.74
133.25,-0.08,0.02,-0.02,-8.2,-0.18,-5.73
133.37,-0.07,0.02,-0.03,-8.2,-0.19,-5.74
133.49,-0.07,0.03,-0.03,-8.2,-0.19,-5.75
133.6,-0.07,0.03,-0.03,-8.2,-0.19,-5.75
133.72,-0.07,0.02,-0.03,-8.2,-0.18,-5.75
133.83,-0.07,0.01,-0.03,-8.2,-0.19,-5.75
133.95,-0.07,0.02,-0.02,-8.2,-0.19,-5.75
134.07,-0.07,0.02,-0.03,-8.2,-0.19,-5.74
134.18,-0.07,0.02,-0.03,-8.2,-0.19,-5.74
134.3,-0.08,0.02,-0.03,-8.21,-0.19,-5.73
134.42,-0.08,0.02,-0.02,-8.21,-0.19,-5.73
134.53,-0.09,0.02,-0.02,-8.21,-0.19,-5.73
134.65,-0.09,0.02,-0.02,-8.21,-0.19,-5.74
134.76,-0.09,0.03,-0.02,-8.21,-0.19,-5.74
134.88,-0.09,0.02,-0.02,-8.21,-0.19,-5.74
135.0,-0.09,0.02,-0.02,-8.2,-0.19,-5.74
135.11,-0.08,0.02,-0.02,-8.2,-0.19,-5.75
135.23,-0.08,0.01,-0.02,-8.2,-0.19,-5.75
135.35,-0.07,0.01,-0.03,-8.2,-0.19,-5.74
135.46,-0.07,0.02,-0.02,-8.2,-0.19,-5.74
135.58,-0.06,0.02,-0.01,-8.2,-0.19,-5.74
135.69,-0.06,0.02,-0.01,-8.2,-0.19,-5.74
135.81,-0.08,0.03,-0.02,-8.2,-0.19,-5.74
135.93,-0.09,0.04,-0.03,-8.2,-0.19,-5.75
136.04,-0.09,0.04,-0.03,-8.2,-0.19,-5.75
136.16,-0.09,0.03,-0.02,-8.2,-0.19,-5.75
136.27,-0.09,0.02,-0.02,-8.2,-0.19,-5.75
136.39,-0.08,0.02,-0.01,-8.2,-0.19,-5.75
136.51,-0.07,0.01,-0.01,-8.2,-0.19,-5.75
136.62,-0.05,0.01,-0.04,-8.2,-0.19,-5.75
136.74,-0.04,0.01,-0.05,-8.2,-0.19,-5.75
136.86,-0.04,0.01,-0.01,-8.2,-0.19,-5.74
136.97,-0.06,0.0,-0.01,-8.2,-0.19,-5.74
137.09,-0.09,0.02,-0.07,-8.2,-0.19,-5.73
137.2,-0.11,0.04,-0.1,-8.2,-0.19,-5.73
137.32,-0.16,-0.05,-0.23,-8.21,-0.2,-5.73
137.44,-0.26,-0.31,-0.44,-8.23,-0.23,-5.73
137.55,-0.3,-0.44,-0.45,-8.24,-0.24,-5.74
137.67,-0.26,-0.29,-0.3,-8.23,-0.22,-5.74
137.79,-0.17,-0.12,-0.11,-8.21,-0.2,-5.75
137.9,-0.1,-0.03,-0.0,-8.2,-0.19,-5.75
138.02,-0.07,0.03,0.01,-8.2,-0.18,-5.75
138.13,-0.07,0.04,0.01,-8.19,-0.18,-5.75
138.25,-0.07,0.04,-0.01,-8.19,-0.18,-5.74
138.37,-0.07,0.03,-0.02,-8.2,-0.18,-5.74
138.48,-0.06,0.02,-0.03,-8.2,-0.18,-5.74
138.6,-0.07,0.02,-0.03,-8.2,-0.18,-5.74
138.72,-0.08,0.02,-0.03,-8.2,-0.18,-5.74
138.83,-0.08,0.02,-0.02,-8.2,-0.18,-5.74
138.95,-0.09,0.02,-0.02,-8.2,-0.19,-5.74
139.06,-0.09,0.02,-0.03,-8.2,-0.19,-5.73
139.18,-0.08,0.01,-0.03,-8.2,-0.19,-5.73
139.3,-0.21,-0.32,-0.09,-8.2,-0.17,-5.74
139.41,-0.6,-0.05,-0.29,-8.19,-0.16,-5.76
139.53,-1.1,1.2,-0.68,-8.16,-0.13,-5.81
139.64,-1.39,0.76,-1.11,-8.12,-0.07,-5.89
139.76,-1.31,-1.18,-1.51,-8.13,-0.12,-5.88
139.88,-0.61,-3.8,-0.57,-8.21,-0.37,-5.74
139.99,1.57,-5.33,0.77,-8.29,-0.57,-5.68
140.11,5.39,-4.17,0.09,-8.33,-0.64,-5.73
140.23,10.52,-4.57,-1.02,-8.38,-0.67,-5.69
140.34,16.55,-6.23,-2.22,-8.42,-0.7,-5.41
140.46,20.02,-8.26,-3.38,-8.46,-0.73,-5.03
140.57,19.86,-11.06,-4.35,-8.62,-0.82,-4.68
140.69,20.32,-10.88,-6.45,-8.8,-0.96,-4.41
140.81,21.06,-11.47,-7.23,-8.84,-1.17,-4.12
140.92,19.7,-17.22,-4.55,-8.84,-1.42,-3.72
141.04,18.42,-21.71,-0.34,-8.92,-1.63,-3.23
141.16,17.03,-22.01,3.7,-9.05,-1.74,-2.67
141.27,13.41,-24.77,7.13,-9.23,-1.76,-2.04
141.39,9.25,-32.77,8.79,-9.38,-1.71,-1.33
141.51,6.47,-42.01,7.85,-9.46,-1.62,-0.5
141.62,5.39,-48.69,5.11,-9.46,-1.52,0.42
141.74,6.87,-48.88,2.38,-9.31,-1.41,1.36
141.85,9.16,-41.79,0.1,-9.01,-1.31,2.23
141.97,9.08,-32.61,-2.3,-8.7,-1.26,2.93
142.09,7.05,-26.08,-5.32,-8.44,-1.26,3.44
142.2,5.44,-22.83,-8.52,-8.18,-1.3,3.83
142.32,4.8,-20.8,-10.73,-7.92,-1.38,4.19
142.44,4.63,-18.62,-11.55,-7.71,-1.49,4.55
142.55,4.76,-16.48,-10.19,-7.52,-1.61,4.89
142.67,4.81,-14.79,-7.31,-7.33,-1.69,5.18
142.78,4.43,-13.2,-4.56,-7.16,-1.73,5.44
142.9,3.75,-11.74,-2.78,-7.04,-1.77,5.64
143.02,3.39,-11.41,-1.74,-6.93,-1.78,5.79
143.13,3.66,-11.77,-0.8,-6.79,-1.74,5.94
143.25,4.14,-11.45,-0.08,-6.64,-1.72,6.12
143.37,4.53,-10.64,0.4,-6.48,-1.69,6.31
143.48,5.04,-10.36,0.59,-6.29,-1.63,6.5
143.6,5.61,-10.62,0.31,-6.07,-1.56,6.68
143.71,5.76,-10.69,-0.41,-5.87,-1.51,6.86
143.83,4.99,-10.57,-1.2,-5.69,-1.49,7.04
143.95,3.56,-10.36,-1.5,-5.53,-1.48,7.2
144.06,2.89,-10.35,-0.98,-5.36,-1.47,7.36
144.18,3.74,-11.21,0.07,-5.14,-1.41,7.53
144.29,4.83,-12.53,0.79,-4.9,-1.3,7.7
144.41,4.56,-13.88,0.65,-4.66,-1.21,7.88
144.53,2.46,-16.12,0.46,-4.42,-1.15,8.07
144.64,-0.28,-19.72,1.87,-4.17,-1.12,8.24
144.76,-1.31,-23.52,5.23,-3.82,-1.07,8.36
144.87,0.24,-26.61,8.41,-3.35,-0.98,8.5
144.99,2.81,-29.0,9.88,-2.78,-0.86,8.69
145.11,4.39,-29.42,10.01,-2.15,-0.71,8.88
145.22,3.75,-27.27,8.96,-1.51,-0.56,9.04
145.34,1.07,-24.22,6.62,-0.94,-0.43,9.16
145.46,-1.6,-21.17,3.24,-0.5,-0.4,9.24
145.57,-1.85,-19.27,0.29,-0.16,-0.42,9.31
145.69,0.84,-20.39,0.36,0.16,-0.42,9.34
145.8,4.49,-23.61,3.28,0.53,-0.35,9.35
145.92,6.32,-26.63,6.21,1.0,-0.23,9.31
146.03,5.45,-29.28,6.89,1.56,-0.1,9.23
146.15,3.64,-31.32,5.29,2.22,0.0,9.12
146.27,3.09,-31.21,3.81,2.91,0.08,9.0
146.38,3.83,-28.64,4.17,3.52,0.13,8.86
146.5,4.53,-24.23,5.36,4.02,0.18,8.68
146.61,4.51,-18.28,5.67,4.44,0.24,8.49
146.73,3.98,-10.75,4.19,4.76,0.28,8.35
146.84,3.26,-2.21,1.18,4.93,0.33,8.26
146.96,2.56,6.26,-2.29,4.92,0.39,8.25
147.08,2.02,14.77,-5.92,4.71,0.46,8.32
147.19,1.31,23.83,-9.34,4.33,0.55,8.46
147.31,0.06,32.06,-11.19,3.8,0.64,8.63
147.42,-2.83,36.93,-10.79,3.15,0.7,8.82
147.54,-7.21,37.82,-9.13,2.4,0.69,8.97
147.65,-10.03,36.76,-8.02,1.6,0.61,9.08
147.77,-11.23,35.93,-8.05,0.81,0.48,9.13
147.89,-13.37,37.06,-8.58,0.0,0.29,9.14
148.0,-16.76,41.14,-9.04,-0.84,0.01,9.1
148.12,-20.13,46.66,-8.76,-1.75,-0.38,8.96
148.24,-22.12,50.9,-7.44,-2.71,-0.85,8.69
148.35,-22.28,51.94,-5.6,-3.63,-1.32,8.29
148.47,-21.45,49.25,-3.87,-4.47,-1.75,7.78
148.58,-20.67,44.79,-2.31,-5.17,-2.11,7.21
148.7,-20.03,40.87,0.63,-5.79,-2.4,6.57
148.82,-18.64,37.34,7.35,-6.37,-2.64,5.9
148.93,-16.46,33.95,16.09,-6.92,-2.75,5.26
149.05,-15.23,33.42,21.2,-7.43,-2.73,4.62
149.16,-15.76,36.31,20.34,-7.9,-2.63,3.92
149.28,-16.46,38.3,15.55,-8.36,-2.52,3.17
149.4,-15.93,36.34,10.97,-8.78,-2.38,2.44
149.51,-14.19,32.43,8.51,-9.12,-2.17,1.78
149.63,-11.35,29.46,7.36,-9.39,-1.88,1.2
149.75,-7.76,27.87,8.8,-9.53,-1.52,0.68
149.86,-4.78,27.52,11.74,-9.58,-1.12,0.16
149.98,-2.91,26.23,11.87,-9.6,-0.72,-0.41
150.1,-1.35,22.99,9.51,-9.58,-0.39,-0.99
150.21,0.18,20.47,8.49,-9.51,-0.17,-1.5
150.33,0.9,17.63,8.46,-9.46,-0.05,-1.87
150.44,0.33,11.17,6.2,-9.46,0.02,-2.12
150.56,-0.75,1.55,1.78,-9.48,0.04,-2.22
150.68,-0.8,-8.23,-6.4,-9.51,-0.02,-2.17
150.79,1.45,-15.31,-20.16,-9.54,-0.28,-1.95
150.91,5.61,-20.89,-32.81,-9.5,-0.8,-1.55
151.02,10.01,-26.84,-37.91,-9.37,-1.52,-1.0
151.14,13.56,-30.3,-36.69,-9.18,-2.27,-0.34
151.26,15.66,-29.44,-31.73,-8.94,-2.9,0.39
151.37,15.94,-27.02,-24.2,-8.66,-3.37,1.09
151.49,15.29,-25.71,-16.41,-8.41,-3.69,1.72
151.61,14.94,-25.26,-11.05,-8.2,-3.87,2.28
151.72,14.94,-24.61,-7.98,-7.99,-3.94,2.84
151.84,15.2,-24.14,-5.56,-7.75,-3.94,3.44
151.96,16.65,-24.64,-4.36,-7.47,-3.88,4.04
152.07,19.25,-25.15,-4.77,-7.15,-3.75,4.64
152.19,20.74,-25.27,-4.76,-6.79,-3.58,5.21
152.3,20.22,-25.16,-3.83,-6.4,-3.39,5.73
152.42,18.53,-23.87,-2.59,-5.98,-3.14,6.17
152.54,15.68,-21.24,-1.73,-5.58,-2.89,6.52
152.65,12.16,-17.46,-1.63,-5.29,-2.72,6.81
152.77,9.27,-13.69,-0.7,-5.11,-2.61,7.07
152.89,7.22,-11.5,1.39,-4.95,-2.51,7.29
153.0,5.47,-10.04,2.97,-4.79,-2.4,7.48
153.12,3.67,-7.5,3.11,-4.65,-2.29,7.61
153.24,1.44,-3.13,1.66,-4.53,-2.2,7.66
153.35,-1.67,2.9,-1.22,-4.49,-2.19,7.64
153.47,-5.51,9.79,-4.81,-4.56,-2.28,7.56
153.58,-9.73,15.29,-6.84,-4.74,-2.46,7.39
153.7,-13.95,17.77,-5.3,-5.01,-2.71,7.15
153.82,-17.18,18.89,-1.76,-5.32,-3.01,6.87
153.93,-18.93,20.37,1.02,-5.64,-3.3,6.52
154.05,-19.28,21.98,2.32,-5.95,-3.57,6.1
154.16,-18.49,22.71,2.97,-6.27,-3.79,5.63
154.28,-17.66,22.42,3.53,-6.57,-3.97,5.15
154.4,-17.8,22.85,4.01,-6.87,-4.11,4.65
154.51,-18.28,24.2,4.95,-7.21,-4.24,4.1
154.63,-17.8,24.49,6.54,-7.54,-4.32,3.56
154.74,-16.46,23.34,8.23,-7.81,-4.34,3.03
154.86,-14.7,22.24,10.34,-8.05,-4.27,2.52
154.98,-12.71,21.63,13.03,-8.26,-4.13,2.03
155.09,-11.25,20.31,14.47,-8.44,-3.95,1.6
155.21,-10.28,17.45,13.21,-8.64,-3.74,1.19
155.33,-8.56,13.51,9.94,-8.81,-3.56,0.83
155.44,-5.37,7.94,6.32,-8.95,-3.44,0.57
155.56,1.92,-7.25,4.9,-9.09,-3.37,0.51
155.67,14.37,-34.76,5.41,-8.94,-3.18,0.83
155.79,23.48,-54.53,4.04,-8.34,-2.82,1.66
155.91,22.15,-50.96,1.01,-7.75,-2.52,2.75
156.02,14.65,-33.69,-1.09,-7.5,-2.4,3.68
156.14,7.24,-16.13,-1.95,-7.47,-2.4,4.25
156.26,2.15,-3.73,-1.91,-7.52,-2.45,4.52
156.37,-0.56,2.49,-1.41,-7.6,-2.51,4.58
156.49,-1.53,4.15,-0.96,-7.67,-2.56,4.53
156.6,-1.53,3.81,-0.67,-7.69,-2.59,4.44
156.72,-2.12,4.67,-0.73,-7.65,-2.58,4.34
156.84,-6.24,12.46,-1.37,-7.6,-2.58,4.13
156.95,-13.8,27.09,-1.48,-7.75,-2.68,3.67
157.07,-18.83,36.58,-0.07,-8.18,-2.85,2.95
157.19,-17.36,33.86,1.55,-8.63,-2.98,2.17
157.3,-11.71,23.83,2.18,-8.9,-3.02,1.57
157.42,-5.86,13.0,1.97,-9.0,-3.01,1.24
157.53,-2.4,5.34,1.33,-8.98,-2.98,1.11
157.65,-3.1,4.05,-0.34,-8.87,-2.94,1.07
157.76,-9.74,10.02,7.26,-8.67,-2.86,0.93
157.88,-20.83,20.02,32.15,-8.62,-2.6,0.46
158.0,-26.99,26.97,56.79,-8.96,-2.02,-0.41
158.11,-20.01,24.47,65.02,-9.29,-1.2,-1.38
158.23,-5.83,16.14,56.82,-9.31,-0.3,-2.11
158.35,6.0,9.26,39.99,-9.26,0.53,-2.49
158.46,12.74,4.71,22.88,-9.37,1.2,-2.6
158.58,14.79,4.77,12.37,-9.33,1.64,-2.71
158.69,15.55,10.14,10.81,-8.9,1.85,-2.97
158.81,16.12,13.21,9.78,-8.44,2.0,-3.23
158.93,13.29,11.34,5.82,-8.31,2.18,-3.39
159.04,7.98,7.58,2.52,-8.43,2.35,-3.45
159.16,3.43,3.95,0.63,-8.58,2.45,-3.47
159.27,0.59,1.58,-0.18,-8.69,2.5,-3.47
159.39,-0.69,0.35,-0.21,-8.75,2.51,-3.46
159.51,-0.96,-0.02,-0.02,-8.76,2.51,-3.46
159.62,-0.79,0.1,0.11,-8.76,2.51,-3.46
159.74,-0.52,0.31,0.2,-8.74,2.51,-3.46
159.85,-0.28,0.44,0.25,-8.72,2.52,-3.47
159.97,-0.13,0.49,0.21,-8.71,2.52,-3.47
160.08,-0.09,0.53,0.2,-8.71,2.53,-3.47
160.2,-0.11,0.57,0.28,-8.7,2.53,-3.48
160.32,-0.12,0.59,0.28,-8.7,2.53,-3.49
160.43,-0.12,0.58,0.13,-8.7,2.53,-3.5
160.55,-0.13,0.54,-0.07,-8.69,2.53,-3.51
160.66,-0.13,0.47,-0.18,-8.69,2.52,-3.52
160.78,-0.11,0.4,-0.15,-8.69,2.52,-3.53
160.9,-0.09,0.39,-0.08,-8.69,2.52,-3.54
161.01,-0.07,0.42,-0.0,-8.69,2.53,-3.54
161.13,-0.06,0.42,0.02,-8.69,2.53,-3.54
161.24,-0.07,0.36,-0.0,-8.68,2.53,-3.54
161.36,-0.08,0.32,-0.03,-8.68,2.53,-3.55
161.48,-0.09,0.33,-0.07,-8.68,2.53,-3.56
161.59,-0.1,0.36,-0.08,-8.69,2.53,-3.57
161.71,-0.1,0.38,-0.06,-8.69,2.53,-3.57
161.82,-0.1,0.37,-0.06,-8.69,2.53,-3.57
161.94,-0.1,0.34,-0.07,-8.69,2.53,-3.57
162.06,-0.1,0.3,-0.09,-8.68,2.53,-3.58
162.17,-0.09,0.3,-0.09,-8.68,2.53,-3.58
162.29,-0.08,0.33,-0.1,-8.68,2.53,-3.59
162.4,-0.08,0.33,-0.1,-8.68,2.53,-3.59
162.52,-0.08,0.3,-0.1,-8.67,2.53,-3.6
162.64,-0.08,0.28,-0.11,-8.67,2.52,-3.6
162.75,-0.09,0.27,-0.11,-8.67,2.52,-3.61
162.87,-0.1,0.26,-0.11,-8.67,2.52,-3.61
162.98,-0.1,0.24,-0.11,-8.67,2.51,-3.62
163.1,-0.09,0.23,-0.1,-8.67,2.51,-3.63
163.22,-0.08,0.24,-0.09,-8.68,2.51,-3.63
163.33,-0.07,0.25,-0.08,-8.68,2.51,-3.63
163.45,-0.07,0.24,-0.08,-8.67,2.5,-3.63
163.56,-0.07,0.25,-0.08,-8.67,2.5,-3.63
163.68,-0.07,0.25,-0.09,-8.67,2.5,-3.64
163.8,-0.08,0.26,-0.11,-8.67,2.5,-3.64
163.91,-0.09,0.28,-0.16,-8.67,2.5,-3.65
164.03,-0.1,0.3,-0.2,-8.67,2.5,-3.67
164.14,-0.1,0.32,-0.26,-8.67,2.5,-3.67
164.26,-0.1,0.31,-0.3,-8.67,2.49,-3.67
164.38,-0.09,0.24,-0.23,-8.67,2.49,-3.67
164.49,-0.18,0.11,-0.28,-8.69,2.5,-3.64
164.61,-0.44,0.07,-0.73,-8.71,2.51,-3.62
164.72,-0.65,0.17,-1.19,-8.71,2.51,-3.62
164.84,-0.62,0.2,-1.14,-8.71,2.5,-3.64
164.96,-0.43,0.13,-0.74,-8.69,2.49,-3.66
165.07,-0.23,0.09,-0.33,-8.68,2.48,-3.67
165.19,-0.08,0.07,-0.04,-8.68,2.47,-3.67
165.3,-0.02,0.07,0.06,-8.67,2.47,-3.66
165.42,-0.02,0.1,0.01,-8.67,2.47,-3.67
165.54,-0.01,0.16,-0.03,-8.67,2.46,-3.67
165.65,0.05,0.2,-0.01,-8.67,2.46,-3.68
165.77,0.1,0.2,0.03,-8.67,2.46,-3.68
165.88,0.08,0.18,0.02,-8.67,2.46,-3.68
166.0,0.01,0.16,-0.04,-8.67,2.46,-3.68
166.12,-0.04,0.14,-0.08,-8.67,2.46,-3.67
166.23,-0.06,0.12,-0.06,-8.67,2.46,-3.68
166.35,-0.05,0.14,-0.06,-8.67,2.46,-3.68
166.46,-0.04,0.15,-0.06,-8.67,2.46,-3.69
166.58,-0.02,0.15,-0.05,-8.67,2.46,-3.7
166.69,-0.02,0.15,-0.05,-8.67,2.45,-3.7
166.81,-0.04,0.15,-0.07,-8.67,2.45,-3.7
166.93,-0.06,0.13,-0.08,-8.67,2.45,-3.7
167.04,-0.08,0.11,-0.08,-8.67,2.45,-3.7
167.16,-0.08,0.09,-0.07,-8.67,2.44,-3.7
167.27,-0.07,0.08,-0.04,-8.68,2.44,-3.69
167.39,-0.06,0.08,-0.01,-8.68,2.44,-3.7
167.51,-0.05,0.07,0.02,-8.68,2.44,-3.7
167.62,-0.05,0.07,0.03,-8.68,2.44,-3.71
167.74,-0.07,0.07,0.02,-8.67,2.44,-3.71
167.86,-0.09,0.08,-0.01,-8.67,2.45,-3.7
167.97,-0.1,0.09,-0.02,-8.67,2.45,-3.7
168.09,-0.09,0.09,-0.02,-8.67,2.45,-3.7
168.2,-0.07,0.08,-0.01,-8.67,2.45,-3.7
168.32,-0.05,0.07,-0.0,-8.67,2.44,-3.7
168.43,-0.06,0.06,0.01,-8.67,2.44,-3.7
168.55,-0.07,0.06,0.0,-8.67,2.43,-3.71
168.67,-0.08,0.07,-0.0,-8.67,2.43,-3.71
168.78,-0.08,0.08,-0.01,-8.67,2.43,-3.71
168.9,-0.08,0.08,-0.03,-8.67,2.43,-3.71
169.01,-0.08,0.08,-0.04,-8.67,2.43,-3.71
169.13,-0.08,0.07,-0.04,-8.67,2.43,-3.71
169.25,-0.07,0.06,-0.02,-8.67,2.44,-3.71
169.36,-0.06,0.06,-0.02,-8.67,2.44,-3.7
169.48,-0.06,0.08,-0.03,-8.67,2.44,-3.7
169.59,-0.07,0.1,-0.04,-8.67,2.43,-3.7
169.71,-0.08,0.1,-0.05,-8.67,2.43,-3.7
169.83,-0.09,0.1,-0.05,-8.67,2.42,-3.71
169.94,-0.09,0.1,-0.04,-8.67,2.42,-3.71
170.06,-0.09,0.11,-0.05,-8.67,2.43,-3.71
170.17,-0.08,0.11,-0.04,-8.67,2.43,-3.71
170.29,-0.08,0.11,-0.03,-8.67,2.43,-3.71
170.41,-0.07,0.1,-0.02,-8.67,2.43,-3.71
170.52,-0.07,0.09,-0.02,-8.67,2.43,-3.71
170.64,-0.06,0.08,-0.01,-8.67,2.42,-3.71
170.75,-0.06,0.07,0.0,-8.67,2.42,-3.71
170.87,-0.05,0.06,0.01,-8.67,2.42,-3.71
170.99,-0.05,0.07,0.01,-8.67,2.42,-3.71
171.1,-0.06,0.08,-0.01,-8.67,2.42,-3.71
171.22,-0.07,0.08,-0.02,-8.67,2.42,-3.71
171.33,-0.07,0.07,-0.02,-8.67,2.43,-3.71
171.45,-0.07,0.07,-0.01,-8.68,2.43,-3.71
171.57,-0.07,0.07,-0.01,-8.68,2.42,-3.71
171.68,-0.08,0.07,0.01,-8.68,2.42,-3.72
171.8,-0.09,0.06,0.02,-8.68,2.42,-3.72
171.91,-0.1,0.06,0.02,-8.67,2.42,-3.71
172.03,-0.1,0.06,0.02,-8.67,2.42,-3.71
172.15,-0.09,0.07,0.0,-8.67,2.42,-3.71
172.26,-0.07,0.08,-0.01,-8.67,2.42,-3.71
172.38,-0.06,0.08,-0.01,-8.67,2.42,-3.71
172.49,-0.06,0.08,-0.02,-8.67,2.42,-3.71
172.61,-0.07,0.09,-0.02,-8.67,2.41,-3.71
172.73,-0.08,0.1,-0.03,-8.67,2.41,-3.71
172.84,-0.08,0.11,-0.04,-8.67,2.41,-3.72
172.96,-0.08,0.11,-0.04,-8.67,2.42,-3.72
173.07,-0.08,0.11,-0.04,-8.67,2.42,-3.72
173.19,-0.08,0.11,-0.04,-8.67,2.42,-3.72
173.3,-0.08,0.14,-0.05,-8.67,2.41,-3.72
173.42,-0.08,0.16,-0.06,-8.67,2.41,-3.72
173.54,-0.09,0.15,-0.05,-8.67,2.41,-3.72
173.65,-0.09,0.13,-0.03,-8.67,2.41,-3.72
173.77,-0.09,0.11,-0.01,-8.67,2.41,-3.72
173.88,-0.08,0.08,-0.0,-8.67,2.41,-3.73
174.0,-0.07,0.07,0.0,-8.67,2.41,-3.73
174.12,-0.08,0.08,0.01,-8.67,2.4,-3.73
174.23,-0.08,0.08,0.01,-8.67,2.4,-3.73
174.35,-0.08,0.08,0.02,-8.67,2.41,-3.74
174.46,-0.08,0.08,0.01,-8.67,2.41,-3.74
174.58,-0.08,0.08,0.0,-8.67,2.41,-3.74
174.7,-0.1,0.1,-0.01,-8.67,2.42,-3.74
174.81,-0.13,0.15,-0.03,-8.67,2.42,-3.74
174.93,-0.14,0.18,-0.04,-8.67,2.41,-3.74
175.04,-0.13,0.17,-0.04,-8.67,2.41,-3.74
175.16,-0.11,0.14,-0.03,-8.67,2.4,-3.74
175.28,-0.1,0.1,-0.02,-8.67,2.4,-3.74
175.39,-0.1,0.07,-0.01,-8.67,2.4,-3.74
175.51,-0.1,0.07,-0.01,-8.67,2.4,-3.74
175.62,-0.1,0.08,-0.01,-8.67,2.4,-3.74
175.74,-0.09,0.08,0.0,-8.67,2.4,-3.74
175.86,-0.09,0.07,0.02,-8.67,2.4,-3.74
175.97,-0.09,0.06,0.02,-8.67,2.41,-3.75
176.09,-0.08,0.06,0.02,-8.67,2.41,-3.75
176.2,-0.08,0.06,0.02,-8.67,2.4,-3.74
176.32,-0.07,0.06,0.01,-8.67,2.4,-3.74
176.44,-0.07,0.06,0.01,-8.67,2.4,-3.74
176.55,-0.08,0.06,0.01,-8.67,2.4,-3.74
176.67,-0.08,0.08,0.01,-8.67,2.4,-3.74
176.78,-0.08,0.09,0.0,-8.67,2.4,-3.74
176.9,-0.08,0.09,-0.0,-8.67,2.4,-3.75
177.01,-0.08,0.08,-0.0,-8.67,2.4,-3.75
177.13,-0.09,0.08,-0.0,-8.68,2.4,-3.75
177.25,-0.09,0.08,0.0,-8.68,2.4,-3.75
177.36,-0.08,0.08,0.01,-8.68,2.4,-3.74
177.48,-0.07,0.07,0.01,-8.67,2.4,-3.74
177.59,-0.06,0.06,0.0,-8.67,2.4,-3.74
177.71,-0.07,0.06,0.0,-8.67,2.4,-3.74
177.83,-0.07,0.08,-0.0,-8.67,2.4,-3.74
177.94,-0.08,0.11,-0.01,-8.67,2.4,-3.75
178.06,-0.09,0.12,-0.02,-8.67,2.4,-3.75
178.17,-0.09,0.12,-0.02,-8.67,2.4,-3.75
178.29,-0.09,0.12,-0.02,-8.67,2.4,-3.75
178.41,-0.08,0.12,-0.0,-8.67,2.39,-3.75
178.52,-0.08,0.12,0.01,-8.67,2.39,-3.75
178.64,-0.07,0.12,0.02,-8.67,2.39,-3.75
178.75,-0.06,0.1,0.04,-8.67,2.4,-3.75
178.87,-0.06,0.08,0.05,-8.67,2.4,-3.76
178.98,-0.05,0.1,0.09,-8.67,2.4,-3.76
179.1,-0.04,0.18,0.13,-8.67,2.4,-3.75
179.22,-0.06,0.21,0.12,-8.67,2.4,-3.75
179.33,-0.07,0.18,0.08,-8.67,2.4,-3.76
179.45,-0.07,0.17,0.04,-8.67,2.4,-3.76
179.56,-0.06,0.15,0.02,-8.67,2.4,-3.76
179.68,-0.07,0.11,0.0,-8.67,2.4,-3.76
179.8,-0.07,0.08,0.0,-8.66,2.41,-3.76
179.91,-0.06,0.08,0.02,-8.66,2.4,-3.75
180.03,-0.05,0.11,0.04,-8.66,2.4,-3.75
180.14,-0.05,0.14,0.04,-8.66,2.4,-3.75
180.26,-0.07,0.13,0.03,-8.67,2.4,-3.76
180.38,-0.08,0.11,0.01,-8.67,2.4,-3.76
180.49,-0.08,0.09,0.0,-8.66,2.4,-3.77
180.61,-0.08,0.09,-0.0,-8.66,2.4,-3.77
180.72,-0.08,0.08,-0.01,-8.66,2.4,-3.77
180.84,-0.08,0.08,-0.0,-8.66,2.4,-3.77
180.96,-0.07,0.06,0.0,-8.66,2.4,-3.77
181.07,-0.07,0.02,0.02,-8.66,2.4,-3.77
181.19,-0.08,-0.01,0.03,-8.67,2.4,-3.77
181.3,-0.11,0.01,0.03,-8.67,2.4,-3.77
181.42,-0.13,0.04,0.0,-8.67,2.41,-3.76
181.53,-0.13,0.08,-0.04,-8.66,2.41,-3.76
181.65,-0.12,0.16,-0.1,-8.66,2.41,-3.76
181.77,-0.11,0.22,-0.14,-8.66,2.41,-3.76
181.88,-0.1,0.23,-0.13,-8.66,2.41,-3.76
182.0,-0.08,0.19,-0.09,-8.66,2.41,-3.77
182.11,-0.07,0.14,-0.05,-8.66,2.4,-3.78
182.23,-0.07,0.14,-0.06,-8.66,2.4,-3.78
182.35,-0.08,0.17,-0.11,-8.66,2.4,-3.78
182.46,-0.09,0.17,-0.14,-8.66,2.4,-3.78
182.58,-0.1,0.23,-0.17,-8.66,2.39,-3.78
182.69,-0.13,0.38,-0.29,-8.67,2.39,-3.78
182.81,-0.15,0.45,-0.39,-8.66,2.38,-3.78
182.93,-0.15,0.36,-0.36,-8.66,2.37,-3.78
183.04,-0.13,0.31,-0.28,-8.66,2.37,-3.78
183.16,-0.11,0.29,-0.21,-8.66,2.36,-3.79
183.27,-0.1,0.21,-0.15,-8.66,2.36,-3.79
183.39,-0.08,0.1,-0.04,-8.66,2.36,-3.8
183.51,-0.05,0.02,0.09,-8.66,2.36,-3.8
183.62,-0.04,-0.02,0.16,-8.66,2.37,-3.79
183.74,-0.04,-0.02,0.13,-8.66,2.37,-3.78
183.85,-0.05,0.0,0.07,-8.66,2.37,-3.78
183.97,-0.07,0.02,0.02,-8.67,2.37,-3.78
184.09,-0.07,0.04,-0.01,-8.67,2.37,-3.78
184.2,-0.07,0.05,-0.01,-8.67,2.37,-3.79
184.32,-0.07,0.06,-0.01,-8.67,2.37,-3.79
184.43,-0.07,0.06,0.0,-8.67,2.37,-3.79
184.55,-0.08,0.05,0.01,-8.67,2.37,-3.79
184.66,-0.09,0.04,0.02,-8.66,2.37,-3.79
184.78,-0.09,0.04,0.02,-8.66,2.37,-3.79
184.9,-0.08,0.04,0.02,-8.67,2.37,-3.79
185.01,-0.08,0.05,0.02,-8.67,2.37,-3.79
185.13,-0.08,0.06,0.02,-8.67,2.36,-3.79
185.24,-0.08,0.07,0.02,-8.66,2.36,-3.8
185.36,-0.08,0.07,0.03,-8.66,2.36,-3.8
185.48,-0.09,0.06,0.03,-8.66,2.37,-3.8
185.59,-0.08,0.06,0.03,-8.66,2.37,-3.79
185.71,-0.07,0.06,0.02,-8.66,2.37,-3.79
185.82,-0.06,0.07,0.01,-8.66,2.37,-3.79
185.94,-0.06,0.07,0.0,-8.66,2.37,-3.79
186.05,-0.06,0.08,-0.0,-8.66,2.37,-3.79
186.17,-0.06,0.09,-0.01,-8.66,2.37,-3.79
186.29,-0.06,0.09,-0.01,-8.66,2.37,-3.8
186.4,-0.06,0.08,-0.0,-8.67,2.37,-3.8
186.52,-0.07,0.07,-0.0,-8.67,2.37,-3.8
186.63,-0.06,0.07,0.0,-8.67,2.37,-3.79
186.75,-0.05,0.07,0.0,-8.67,2.37,-3.79
186.87,-0.06,0.06,0.0,-8.67,2.37,-3.79
186.98,-0.06,0.05,0.0,-8.67,2.37,-3.79
187.1,-0.06,0.05,0.01,-8.67,2.37,-3.8
187.21,-0.06,0.06,0.01,-8.66,2.37,-3.8
187.33,-0.06,0.06,0.01,-8.66,2.37,-3.8
187.45,-0.07,0.06,-0.0,-8.66,2.37,-3.8
187.56,-0.08,0.06,-0.01,-8.66,2.37,-3.8
187.68,-0.08,0.07,-0.01,-8.66,2.37,-3.79
187.79,-0.06,0.08,-0.01,-8.67,2.37,-3.79
187.91,-0.06,0.09,0.01,-8.67,2.37,-3.79
188.02,-0.06,0.08,0.01,-8.67,2.37,-3.79
188.14,-0.06,0.08,0.01,-8.67,2.37,-3.79
188.26,-0.06,0.08,0.0,-8.66,2.37,-3.79
188.37,-0.06,0.07,-0.0,-8.66,2.37,-3.8
188.49,-0.07,0.05,-0.01,-8.66,2.37,-3.8
188.61,-0.09,0.04,-0.01,-8.66,2.37,-3.8
188.72,-0.09,0.05,-0.01,-8.66,2.37,-3.8
188.84,-0.09,0.05,-0.0,-8.67,2.38,-3.79
188.95,-0.08,0.05,0.0,-8.67,2.37,-3.79
189.07,-0.08,0.05,-0.0,-8.67,2.37,-3.78
189.19,-0.08,0.05,-0.01,-8.67,2.36,-3.79
189.3,-0.08,0.06,-0.01,-8.66,2.36,-3.79
189.42,-0.07,0.06,-0.01,-8.66,2.36,-3.79
189.53,-0.07,0.06,-0.01,-8.66,2.36,-3.79
189.65,-0.08,0.05,-0.01,-8.66,2.36,-3.79
189.77,-0.09,0.06,-0.01,-8.66,2.36,-3.79
189.88,-0.08,0.06,-0.01,-8.67,2.37,-3.8
190.0,-0.07,0.07,-0.0,-8.67,2.37,-3.8
190.11,-0.06,0.06,-0.0,-8.67,2.37,-3.8
190.23,-0.08,0.05,-0.0,-8.66,2.37,-3.8
190.35,-0.09,0.04,0.0,-8.66,2.37,-3.8
190.46,-0.09,0.05,0.0,-8.66,2.37,-3.8
190.58,-0.08,0.06,0.0,-8.66,2.36,-3.81
190.69,-0.07,0.07,0.0,-8.66,2.36,-3.81
190.81,-0.06,0.07,-0.0,-8.67,2.36,-3.81
190.92,-0.07,0.07,-0.01,-8.67,2.36,-3.8
191.04,-0.08,0.07,-0.02,-8.67,2.36,-3.8
191.16,-0.08,0.08,-0.02,-8.66,2.37,-3.8
191.27,-0.08,0.08,-0.02,-8.66,2.37,-3.8
191.39,-0.09,0.08,-0.01,-8.66,2.36,-3.8
191.5,-0.09,0.08,-0.01,-8.66,2.36,-3.8
191.62,-0.09,0.09,-0.01,-8.66,2.36,-3.79
191.74,-0.09,0.1,-0.02,-8.66,2.36,-3.79
191.85,-0.1,0.09,-0.02,-8.66,2.36,-3.79
191.97,-0.1,0.08,-0.01,-8.66,2.36,-3.79
192.08,-0.1,0.07,-0.01,-8.67,2.36,-3.79
192.2,-0.09,0.06,-0.0,-8.67,2.36,-3.8
192.32,-0.08,0.04,0.0,-8.66,2.36,-3.81
192.43,-0.08,0.03,0.0,-8.66,2.36,-3.81
192.55,-0.07,0.03,0.0,-8.66,2.36,-3.81
192.66,-0.07,0.03,0.01,-8.66,2.36,-3.81
192.78,-0.07,0.03,0.01,-8.66,2.36,-3.81
192.9,-0.06,0.04,0.01,-8.66,2.36,-3.81
193.01,-0.07,0.04,0.01,-8.66,2.36,-3.81
193.13,-0.07,0.04,0.01,-8.66,2.36,-3.8
193.24,-0.08,0.05,0.01,-8.66,2.36,-3.8
193.36,-0.07,0.06,0.01,-8.66,2.36,-3.81
193.48,-0.07,0.05,0.01,-8.66,2.36,-3.81
193.59,-0.08,0.05,0.01,-8.66,2.36,-3.81
193.71,-0.08,0.04,0.02,-8.66,2.36,-3.81
193.82,-0.07,0.04,0.02,-8.66,2.36,-3.82
193.94,-0.08,0.05,0.02,-8.66,2.36,-3.82
194.05,-0.09,0.04,0.02,-8.66,2.36,-3.81
194.17,-0.09,0.04,0.01,-8.66,2.36,-3.81
194.29,-0.09,0.04,-0.0,-8.66,2.35,-3.8
194.4,-0.09,0.05,-0.0,-8.66,2.35,-3.81
194.52,-0.08,0.06,0.0,-8.66,2.35,-3.81
194.63,-0.08,0.06,0.01,-8.66,2.36,-3.81
194.75,-0.07,0.06,0.01,-8.66,2.36,-3.81
194.87,-0.07,0.06,0.01,-8.66,2.36,-3.81
194.98,-0.08,0.06,0.01,-8.66,2.36,-3.81
195.1,-0.08,0.05,0.0,-8.66,2.36,-3.8
195.21,-0.09,0.04,0.0,-8.66,2.36,-3.8
195.33,-0.08,0.03,0.01,-8.66,2.36,-3.8
195.44,-0.07,0.03,0.01,-8.66,2.36,-3.8
195.56,-0.06,0.02,0.01,-8.66,2.36,-3.81
195.68,-0.06,0.02,-0.0,-8.66,2.36,-3.81
195.79,-0.07,0.03,-0.01,-8.66,2.36,-3.82
195.91,-0.08,0.04,-0.01,-8.66,2.36,-3.82
196.02,-0.08,0.05,-0.01,-8.66,2.36,-3.82
196.14,-0.07,0.04,-0.0,-8.66,2.36,-3.82
196.26,-0.07,0.03,0.0,-8.66,2.36,-3.82
196.37,-0.08,0.01,0.01,-8.67,2.36,-3.81
196.49,-0.08,0.02,0.01,-8.67,2.36,-3.81
196.6,-0.07,0.05,-0.01,-8.67,2.36,-3.81
196.72,-0.05,0.08,-0.02,-8.66,2.36,-3.81
196.84,-0.04,0.09,-0.01,-8.66,2.36,-3.81
196.95,-0.04,0.08,-0.01,-8.65,2.37,-3.81
197.07,-0.09,0.2,0.07,-8.64,2.37,-3.81
197.18,0.88,0.93,2.03,-8.68,2.34,-3.85
197.3,2.73,-0.37,7.23,-8.88,2.3,-3.95
197.41,1.94,-9.02,11.4,-9.16,2.42,-3.92
197.53,-2.29,-20.15,5.17,-9.38,2.62,-3.59
197.65,-4.55,-23.11,-9.8,-9.35,2.6,-3.04
197.76,-1.24,-21.11,-16.34,-9.21,2.38,-2.35
197.88,3.75,-24.28,-9.17,-9.31,2.2,-1.55
198.0,6.58,-30.46,-1.92,-9.42,2.13,-0.74
198.11,6.71,-32.43,-4.09,-9.43,2.05,-0.03
198.23,4.71,-32.18,-9.27,-9.43,1.84,0.56
198.34,2.79,-33.54,-8.95,-9.36,1.56,1.09
198.46,2.48,-35.85,-4.41,-9.18,1.34,1.66
198.58,3.93,-37.87,1.07,-8.94,1.24,2.32
198.69,6.09,-38.83,5.54,-8.63,1.28,3.02
198.81,7.27,-37.55,7.66,-8.22,1.44,3.69
198.92,7.11,-31.84,7.81,-7.73,1.64,4.32
199.04,5.78,-19.88,6.3,-7.32,1.81,4.89
199.16,2.2,-3.91,1.9,-7.13,1.91,5.24
199.27,-3.57,12.82,-6.75,-7.19,1.89,5.25
199.39,-9.84,29.63,-20.31,-7.39,1.71,4.93
199.5,-15.46,41.59,-32.96,-7.8,1.26,4.3
199.62,-18.28,44.31,-35.09,-8.38,0.61,3.49
199.74,-17.14,42.54,-27.23,-8.85,-0.03,2.66
199.85,-14.54,40.37,-16.22,-9.26,-0.53,1.82
199.97,-13.29,39.12,-6.93,-9.51,-0.83,0.99
200.09,-12.27,37.49,0.1,-9.58,-0.91,0.13
200.2,-9.26,31.68,6.83,-9.78,-0.79,-0.81
200.32,-5.44,25.09,11.92,-9.89,-0.54,-1.68
200.43,-1.86,20.51,12.96,-9.55,-0.29,-2.3
200.55,1.34,12.62,11.86,-9.27,-0.06,-2.61
200.67,3.08,0.07,11.4,-9.34,0.14,-2.65
200.78,3.19,-12.78,11.44,-9.42,0.35,-2.48
200.9,3.61,-28.52,10.17,-9.43,0.64,-2.06
201.02,4.98,-45.8,4.51,-9.46,0.98,-1.36
201.13,5.49,-53.59,-2.29,-9.47,1.14,-0.5
201.25,5.11,-50.76,-5.32,-9.43,1.11,0.36
201.36,5.1,-44.51,-5.73,-9.33,1.0,1.15
201.48,6.14,-40.12,-2.99,-9.13,0.94,1.87
201.6,8.01,-38.05,1.83,-8.88,0.96,2.6
201.71,9.39,-36.38,0.6,-8.53,1.06,3.31
201.83,9.63,-35.06,-7.45,-8.02,1.22,3.91
201.94,8.46,-30.25,-12.16,-7.51,1.34,4.41
202.06,4.52,-16.38,-12.59,-7.24,1.33,4.82
202.18,-1.52,3.1,-13.61,-7.36,1.15,5.0
202.29,-6.93,18.75,-14.43,-7.63,0.88,4.85
202.41,-11.02,27.71,-14.67,-7.94,0.53,4.46
202.52,-14.52,33.29,-15.29,-8.43,0.04,3.92
202.64,-17.19,36.2,-15.7,-8.92,-0.5,3.21
202.76,-18.36,35.44,-14.41,-9.27,-0.95,2.39
202.87,-20.39,37.72,-12.05,-9.41,-1.31,1.54
202.99,-23.1,44.05,-9.36,-9.29,-1.56,0.58
203.11,-21.48,42.04,-5.43,-9.32,-1.73,-0.46
203.22,-16.24,30.76,-1.1,-9.67,-1.87,-1.43
203.34,-10.93,19.19,1.95,-9.87,-1.9,-2.15
203.46,-5.44,8.94,4.48,-9.84,-1.81,-2.57
203.57,0.2,-2.14,7.11,-9.84,-1.67,-2.72
203.69,5.71,-14.97,10.6,-9.85,-1.49,-2.59
203.8,11.09,-28.8,15.38,-9.73,-1.22,-2.14
203.92,14.6,-39.48,18.67,-9.53,-0.88,-1.4
204.04,15.51,-44.79,19.4,-9.38,-0.51,-0.48
204.15,15.02,-46.66,18.7,-9.3,-0.13,0.5
204.27,13.77,-44.94,16.33,-9.19,0.24,1.45
204.39,12.29,-40.68,11.57,-8.93,0.58,2.32
204.5,11.03,-36.98,5.04,-8.52,0.88,3.05
204.62,9.5,-31.92,-0.94,-8.06,1.13,3.65
204.73,6.51,-21.73,-5.42,-7.63,1.29,4.09
204.85,1.21,-5.47,-9.69,-7.44,1.26,4.34
204.97,-4.78,12.11,-13.57,-7.69,0.98,4.32
205.08,-8.67,23.22,-15.13,-8.18,0.59,4.04
205.2,-10.07,26.63,-14.57,-8.57,0.23,3.62
205.32,-10.83,27.14,-13.96,-8.68,-0.05,3.15
205.43,-11.85,28.39,-14.03,-8.46,-0.21,2.68
205.55,-12.06,29.41,-13.58,-8.25,-0.38,2.24
205.66,-11.75,28.83,-11.89,-8.39,-0.66,1.8
205.78,-12.11,27.01,-9.21,-8.87,-1.01,1.25
205.9,-13.49,26.08,-7.26,-9.29,-1.32,0.58
206.01,-14.39,26.03,-6.35,-9.32,-1.49,-0.07
206.13,-12.42,22.35,-4.18,-9.37,-1.62,-0.68
206.25,-7.65,13.54,-0.72,-9.6,-1.73,-1.16
206.36,0.04,-0.84,4.32,-9.73,-1.74,-1.39
206.48,9.23,-19.35,11.3,-9.7,-1.58,-1.22
206.6,15.58,-34.62,16.86,-9.6,-1.27,-0.62
206.71,17.41,-41.33,18.77,-9.42,-0.86,0.2
206.83,16.08,-40.25,17.82,-9.17,-0.41,1.04
206.95,13.39,-35.04,15.42,-8.95,0.0,1.81
207.06,10.54,-28.61,12.48,-8.75,0.35,2.44
207.18,7.5,-20.62,8.61,-8.56,0.61,2.94
207.29,3.97,-10.49,3.48,-8.43,0.76,3.27
207.41,-0.83,3.15,-3.66,-8.29,0.82,3.38
207.52,-5.99,18.06,-11.23,-8.06,0.78,3.21
207.64,-8.43,25.61,-14.35,-7.95,0.63,2.82
207.76,-8.68,25.2,-13.32,-8.26,0.33,2.4
207.87,-9.16,23.58,-11.88,-8.92,-0.09,1.92
207.99,-10.78,24.94,-11.77,-9.53,-0.51,1.33
208.11,-13.63,29.89,-13.18,-9.7,-0.86,0.69
208.22,-15.15,32.48,-13.32,-9.55,-1.12,0.06
208.34,-12.25,26.09,-9.6,-9.47,-1.33,-0.5
208.46,-5.63,11.69,-3.03,-9.56,-1.47,-0.88
208.57,2.16,-5.55,4.24,-9.66,-1.46,-0.97
208.69,8.89,-20.18,10.34,-9.61,-1.28,-0.73
208.8,12.36,-28.01,13.44,-9.48,-1.0,-0.23
208.92,12.14,-28.23,13.15,-9.37,-0.71,0.4
209.04,9.32,-22.29,10.03,-9.28,-0.44,0.98
209.15,5.05,-12.5,5.08,-9.21,-0.26,1.36
209.27,0.87,-3.0,0.36,-9.23,-0.2,1.49
209.38,-1.89,2.91,-2.62,-9.29,-0.22,1.44
209.5,-3.1,5.55,-3.87,-9.27,-0.27,1.31
209.62,-3.38,6.79,-4.1,-9.21,-0.33,1.17
209.73,-3.14,7.14,-3.76,-9.18,-0.41,1.04
209.85,-2.27,5.87,-2.69,-9.25,-0.5,0.91
209.97,-0.96,3.13,-0.99,-9.37,-0.59,0.82
210.08,0.48,-0.31,0.9,-9.4,-0.61,0.78
210.2,1.99,-4.22,2.74,-9.31,-0.56,0.79
210.31,3.26,-7.68,4.11,-9.18,-0.47,0.89
210.43,3.87,-9.18,4.62,-9.08,-0.37,1.05
210.54,3.51,-7.99,4.11,-9.05,-0.29,1.23
210.66,2.28,-4.91,2.64,-9.08,-0.24,1.35
210.78,0.8,-1.66,0.96,-9.12,-0.22,1.4
210.89,-0.27,0.47,-0.19,-9.17,-0.23,1.37
211.01,-0.63,0.91,-0.46,-9.24,-0.25,1.31
211.12,-0.45,0.56,-0.2,-9.32,-0.28,1.26
211.24,-0.18,0.34,0.02,-9.35,-0.29,1.24
211.36,0.02,0.06,0.06,-9.31,-0.29,1.22
211.47,0.29,-0.52,0.2,-9.25,-0.28,1.21
211.59,0.61,-1.35,0.48,-9.25,-0.28,1.22
211.7,0.89,-2.12,0.72,-9.31,-0.29,1.25
211.82,1.22,-2.38,0.98,-9.39,-0.3,1.3
211.94,1.43,-1.92,1.2,-9.45,-0.31,1.34
212.05,1.29,-1.24,1.2,-9.44,-0.29,1.36
212.17,0.91,-0.84,0.94,-9.38,-0.26,1.36
212.28,0.72,-0.75,0.71,-9.3,-0.24,1.36
212.4,0.73,-0.88,0.7,-9.27,-0.23,1.36
212.51,0.67,-0.81,0.71,-9.31,-0.22,1.37
212.63,0.58,-0.42,0.67,-9.34,-0.22,1.39
212.75,0.5,-0.05,0.63,-9.34,-0.22,1.4
212.86,0.04,0.81,0.19,-9.31,-0.22,1.39
212.98,-2.06,5.6,-2.2,-9.28,-0.26,1.32
213.09,-8.15,19.68,-9.35,-9.11,-0.33,1.09
213.21,-16.51,39.09,-18.36,-8.67,-0.41,0.65
213.33,-20.07,50.16,-9.57,-8.1,-0.44,0.04
213.44,-17.26,54.35,26.51,-7.57,-0.25,-0.8
213.56,-11.23,54.93,59.99,-7.37,0.44,-1.95
213.68,-4.15,42.94,62.6,-7.66,1.49,-3.03
213.79,0.43,25.02,42.19,-8.12,2.25,-3.69
213.91,1.66,11.64,19.33,-8.48,2.5,-3.98
214.02,1.51,2.98,4.45,-8.7,2.47,-4.05
214.14,0.92,-1.23,-2.5,-8.79,2.36,-4.01
214.26,0.31,-2.17,-4.53,-8.79,2.24,-3.95
214.37,-0.12,-1.6,-4.08,-8.77,2.16,-3.9
214.49,-0.32,-0.69,-2.77,-8.74,2.11,-3.88
214.6,-0.37,0.04,-1.57,-8.72,2.09,-3.88
214.72,-0.34,0.46,-0.78,-8.71,2.08,-3.88
214.84,-0.3,0.62,-0.51,-8.7,2.08,-3.89
214.95,-0.31,0.61,-0.68,-8.7,2.08,-3.89
215.07,-0.33,0.55,-0.89,-8.7,2.07,-3.9
215.18,-0.32,0.49,-0.89,-8.7,2.06,-3.91
215.3,-0.27,0.46,-0.75,-8.7,2.06,-3.92
215.41,-0.23,0.43,-0.6,-8.7,2.05,-3.93
215.53,-0.2,0.4,-0.48,-8.7,2.04,-3.94
215.65,-0.18,0.38,-0.4,-8.7,2.03,-3.96
215.76,-0.17,0.36,-0.36,-8.7,2.02,-3.97
215.88,-0.16,0.34,-0.33,-8.7,2.02,-3.98
216.0,-0.16,0.33,-0.33,-8.71,2.01,-3.98
216.11,-0.17,0.32,-0.34,-8.71,2.0,-3.98
216.23,-0.16,0.31,-0.33,-8.71,2.0,-3.98
216.34,-0.16,0.31,-0.33,-8.71,1.99,-3.97
216.46,-0.17,0.31,-0.33,-8.71,1.99,-3.98
216.58,-0.17,0.31,-0.32,-8.71,1.98,-3.98
216.69,-0.17,0.31,-0.3,-8.7,1.98,-3.99
216.81,-0.16,0.3,-0.28,-8.7,1.97,-4.0
216.92,-0.16,0.29,-0.26,-8.7,1.97,-4.0
217.04,-0.16,0.28,-0.26,-8.7,1.97,-4.01
217.16,-0.16,0.28,-0.26,-8.7,1.96,-4.01
217.27,-0.15,0.28,-0.26,-8.7,1.96,-4.02
217.39,-0.15,0.27,-0.24,-8.7,1.95,-4.02
217.5,-0.15,0.26,-0.23,-8.71,1.95,-4.02
217.62,-0.14,0.25,-0.22,-8.7,1.94,-4.02
217.74,-0.13,0.24,-0.2,-8.7,1.94,-4.03
217.85,-0.12,0.24,-0.19,-8.7,1.94,-4.03
217.97,-0.12,0.24,-0.17,-8.7,1.93,-4.03
218.08,-0.12,0.25,-0.18,-8.7,1.93,-4.04
218.2,-0.13,0.25,-0.19,-8.7,1.92,-4.04
218.32,-0.14,0.25,-0.19,-8.7,1.92,-4.04
218.43,-0.15,0.24,-0.19,-8.7,1.91,-4.04
218.55,-0.15,0.23,-0.18,-8.7,1.91,-4.05
218.66,-0.14,0.22,-0.16,-8.7,1.91,-4.05
218.78,-0.13,0.22,-0.15,-8.7,1.91,-4.06
218.9,-0.12,0.21,-0.16,-8.7,1.91,-4.06
219.01,-0.12,0.2,-0.16,-8.7,1.9,-4.06
219.13,-0.11,0.19,-0.16,-8.7,1.9,-4.06
219.24,-0.12,0.18,-0.15,-8.7,1.89,-4.06
219.36,-0.12,0.18,-0.15,-8.69,1.89,-4.07
219.48,-0.12,0.19,-0.14,-8.7,1.89,-4.08
219.59,-0.12,0.2,-0.13,-8.7,1.89,-4.08
219.71,-0.12,0.2,-0.12,-8.7,1.89,-4.07
219.82,-0.12,0.2,-0.11,-8.7,1.88,-4.07
219.94,-0.11,0.18,-0.09,-8.7,1.88,-4.08
220.05,-0.1,0.15,-0.08,-8.7,1.88,-4.08
220.17,-0.09,0.14,-0.09,-8.7,1.88,-4.08
220.29,-0.09,0.13,-0.1,-8.7,1.88,-4.09
220.4,-0.09,0.14,-0.1,-8.7,1.88,-4.09
220.52,-0.1,0.16,-0.11,-8.7,1.87,-4.08
220.63,-0.1,0.16,-0.1,-8.69,1.87,-4.08
220.75,-0.1,0.14,-0.07,-8.7,1.86,-4.09
220.87,-0.11,0.11,-0.04,-8.7,1.86,-4.09
220.98,-0.1,0.09,0.0,-8.7,1.85,-4.09
221.1,-0.08,0.06,0.05,-8.7,1.85,-4.09
221.22,-0.08,0.07,0.01,-8.7,1.84,-4.1
221.33,-0.1,0.1,-0.08,-8.7,1.84,-4.1
221.45,-0.11,0.14,-0.14,-8.7,1.84,-4.11
221.56,-0.11,0.17,-0.13,-8.7,1.84,-4.11
221.68,-0.1,0.19,-0.09,-8.7,1.84,-4.11
221.8,-0.09,0.19,-0.05,-8.7,1.84,-4.11
221.91,-0.09,0.19,-0.06,-8.69,1.83,-4.11
222.03,-0.1,0.19,-0.1,-8.69,1.83,-4.11
222.14,-0.1,0.18,-0.11,-8.69,1.83,-4.11
222.26,-0.08,0.15,-0.08,-8.69,1.83,-4.12
222.37,-0.07,0.14,-0.05,-8.69,1.83,-4.12
222.49,-0.07,0.14,-0.04,-8.69,1.83,-4.12
222.61,-0.08,0.13,-0.05,-8.69,1.83,-4.12
222.72,-0.07,0.14,-0.06,-8.69,1.83,-4.12
222.84,-0.06,0.14,-0.07,-8.69,1.83,-4.13
222.96,-0.06,0.13,-0.07,-8.7,1.82,-4.13
223.07,-0.07,0.12,-0.08,-8.7,1.82,-4.13
223.19,-0.08,0.13,-0.09,-8.7,1.82,-4.13
223.3,-0.09,0.13,-0.08,-8.69,1.82,-4.13
223.42,-0.09,0.13,-0.08,-8.69,1.82,-4.13
223.54,-0.1,0.12,-0.09,-8.69,1.82,-4.14
223.65,-0.09,0.11,-0.07,-8.69,1.81,-4.15
223.77,-0.09,0.1,-0.06,-8.69,1.81,-4.15
223.88,-0.08,0.11,-0.07,-8.69,1.81,-4.15
224.0,-0.08,0.12,-0.08,-8.69,1.81,-4.15
224.12,-0.08,0.13,-0.09,-8.69,1.81,-4.14
224.23,-0.08,0.14,-0.09,-8.69,1.8,-4.14
224.35,-0.07,0.15,-0.09,-8.7,1.8,-4.14
224.46,-0.07,0.16,-0.08,-8.7,1.8,-4.14
224.58,-0.08,0.15,-0.08,-8.69,1.8,-4.14
224.7,-0.09,0.14,-0.09,-8.69,1.8,-4.14
224.81,-0.1,0.14,-0.1,-8.69,1.8,-4.14
224.93,-0.1,0.13,-0.09,-8.69,1.8,-4.14
225.04,-0.09,0.13,-0.07,-8.69,1.8,-4.15
225.16,-0.09,0.13,-0.07,-8.7,1.8,-4.15
225.27,-0.09,0.13,-0.06,-8.7,1.79,-4.15
225.39,-0.09,0.13,-0.07,-8.7,1.79,-4.15
225.51,-0.1,0.13,-0.08,-8.7,1.79,-4.15
225.62,-0.1,0.13,-0.07,-8.7,1.78,-4.15
225.74,-0.1,0.13,-0.07,-8.7,1.78,-4.16
225.86,-0.1,0.13,-0.07,-8.7,1.78,-4.16
225.97,-0.11,0.13,-0.09,-8.7,1.78,-4.16
226.09,-0.11,0.15,-0.11,-8.7,1.78,-4.16
226.2,-0.1,0.15,-0.08,-8.7,1.78,-4.16
226.32,-0.09,0.14,-0.06,-8.69,1.78,-4.16
226.44,-0.09,0.12,-0.03,-8.69,1.78,-4.16
226.55,-0.08,0.11,0.0,-8.68,1.77,-4.16
226.67,-0.07,0.11,0.01,-8.68,1.77,-4.17
226.78,-0.07,0.12,0.01,-8.68,1.77,-4.17
226.9,-0.07,0.13,-0.01,-8.69,1.77,-4.17
227.01,-0.08,0.13,-0.03,-8.69,1.78,-4.17
227.13,-0.08,0.13,-0.05,-8.69,1.77,-4.17
227.25,-0.07,0.13,-0.05,-8.69,1.77,-4.18
227.36,-0.07,0.13,-0.04,-8.69,1.76,-4.18
227.48,-0.07,0.13,-0.04,-8.69,1.76,-4.18
227.6,-0.08,0.13,-0.05,-8.69,1.76,-4.19
227.71,-0.08,0.12,-0.05,-8.69,1.76,-4.18
227.83,-0.08,0.11,-0.05,-8.69,1.76,-4.18
227.94,-0.08,0.11,-0.05,-8.68,1.76,-4.19
228.06,-0.08,0.12,-0.04,-8.68,1.76,-4.19
228.17,-0.07,0.13,-0.04,-8.68,1.75,-4.19
228.29,-0.07,0.14,-0.04,-8.69,1.75,-4.19
228.41,-0.07,0.14,-0.04,-8.69,1.75,-4.18
228.52,-0.07,0.14,-0.05,-8.69,1.75,-4.19
228.64,-0.07,0.13,-0.07,-8.69,1.75,-4.19
228.75,-0.08,0.12,-0.06,-8.69,1.75,-4.18
228.87,-0.08,0.11,-0.05,-8.69,1.75,-4.19
228.99,-0.08,0.11,-0.04,-8.69,1.75,-4.19
229.1,-0.08,0.12,-0.05,-8.69,1.75,-4.19
229.22,-0.08,0.12,-0.06,-8.69,1.75,-4.19
229.34,-0.08,0.13,-0.05,-8.69,1.75,-4.19
229.45,-0.07,0.13,-0.05,-8.69,1.75,-4.19
229.57,-0.08,0.14,-0.05,-8.69,1.74,-4.19
229.68,-0.09,0.13,-0.08,-8.69,1.74,-4.19
229.8,-0.1,0.08,-0.1,-8.69,1.74,-4.19
229.91,-0.08,0.05,-0.01,-8.69,1.74,-4.19
230.03,-0.05,0.1,0.04,-8.69,1.74,-4.19
230.15,-0.19,0.27,-0.82,-8.7,1.73,-4.19
230.26,-0.53,0.54,-2.69,-8.73,1.71,-4.18
230.38,-0.78,0.74,-3.83,-8.74,1.69,-4.18
230.49,-0.73,0.67,-3.35,-8.73,1.68,-4.18
230.61,-0.52,0.46,-2.13,-8.71,1.68,-4.19
230.73,-0.31,0.3,-1.03,-8.7,1.68,-4.19
230.84,-0.16,0.2,-0.34,-8.7,1.68,-4.2
230.96,-0.08,0.14,0.02,-8.7,1.68,-4.2
231.07,-0.04,0.11,0.16,-8.7,1.69,-4.2
231.19,-0.03,0.09,0.17,-8.7,1.68,-4.19
231.31,-0.03,0.09,0.13,-8.7,1.68,-4.2
231.42,-0.04,0.1,0.09,-8.71,1.68,-4.2
231.54,-0.05,0.12,0.04,-8.71,1.68,-4.2
231.65,-0.07,0.14,-0.01,-8.71,1.68,-4.2
231.77,-0.08,0.15,-0.05,-8.71,1.67,-4.2
231.88,-0.09,0.14,-0.08,-8.7,1.67,-4.21
232.0,-0.1,0.1,-0.08,-8.7,1.67,-4.21
232.12,-0.09,0.07,-0.04,-8.7,1.67,-4.2
232.23,-0.08,0.09,-0.0,-8.7,1.67,-4.2
232.35,-0.07,0.11,0.0,-8.7,1.67,-4.2
232.47,-0.07,0.11,-0.01,-8.7,1.67,-4.2
232.58,-0.07,0.1,-0.01,-8.7,1.67,-4.2
232.7,0.19,-0.15,0.84,-8.73,1.66,-4.14
232.81,0.59,-0.54,2.12,-8.78,1.66,-4.02
232.93,0.5,-0.31,1.81,-8.8,1.69,-3.95
233.04,0.43,0.96,1.81,-8.76,1.74,-4.0
233.16,0.97,2.46,4.01,-8.69,1.8,-4.1
233.28,1.33,2.63,5.53,-8.66,1.81,-4.2
233.39,1.1,1.64,4.79,-8.65,1.8,-4.25
233.51,0.63,0.76,2.98,-8.64,1.8,-4.28
233.62,0.21,0.29,1.26,-8.64,1.8,-4.29
233.74,-0.05,0.04,0.17,-8.65,1.8,-4.29
233.85,-0.16,-0.06,-0.34,-8.65,1.8,-4.29
233.97,-0.18,-0.0,-0.51,-8.65,1.8,-4.28
234.09,-0.18,0.09,-0.49,-8.65,1.8,-4.28
234.2,-0.15,0.14,-0.33,-8.65,1.8,-4.28
234.32,-0.13,0.18,-0.21,-8.65,1.81,-4.28
234.44,-0.14,0.19,-0.18,-8.64,1.81,-4.27
234.55,-0.14,0.17,-0.13,-8.64,1.8,-4.27
234.67,-0.11,0.12,-0.02,-8.64,1.8,-4.27
234.78,-0.08,0.06,0.06,-8.64,1.79,-4.28
234.9,-0.05,0.0,0.11,-8.64,1.79,-4.28
235.02,-0.06,0.01,0.07,-8.65,1.79,-4.29
235.13,-0.07,0.07,-0.04,-8.65,1.79,-4.29
235.25,-0.06,0.1,-0.04,-8.65,1.79,-4.29
235.36,-0.05,0.13,0.01,-8.65,1.8,-4.29
235.48,-0.04,0.2,0.03,-8.64,1.8,-4.29
235.59,-0.06,0.3,-0.03,-8.63,1.8,-4.29
235.71,-0.1,0.34,-0.15,-8.64,1.8,-4.29
235.83,-0.12,0.26,-0.19,-8.64,1.8,-4.29
235.94,-0.13,0.14,-0.21,-8.64,1.81,-4.29
236.06,-0.15,0.07,-0.28,-8.65,1.8,-4.29
236.17,-0.17,0.05,-0.34,-8.65,1.8,-4.29
236.29,-0.16,0.05,-0.31,-8.65,1.79,-4.29
236.41,-0.14,0.07,-0.23,-8.65,1.79,-4.29
236.52,-0.12,0.09,-0.16,-8.65,1.78,-4.29
236.64,-0.12,0.12,-0.16,-8.65,1.79,-4.29
236.75,-0.14,0.16,-0.24,-8.64,1.79,-4.3
236.87,-0.15,0.19,-0.29,-8.64,1.79,-4.29
236.99,-0.15,0.19,-0.27,-8.63,1.79,-4.29
237.1,-0.14,0.18,-0.23,-8.64,1.79,-4.3
237.22,-0.13,0.15,-0.18,-8.64,1.79,-4.3
237.33,-0.12,0.12,-0.14,-8.64,1.79,-4.3
237.45,-0.11,0.14,-0.12,-8.64,1.79,-4.3
237.57,-0.11,0.18,-0.13,-8.64,1.79,-4.3
237.68,-0.1,0.2,-0.12,-8.64,1.79,-4.3
237.8,-0.09,0.16,-0.07,-8.64,1.78,-4.3
237.91,-0.07,0.13,-0.05,-8.65,1.78,-4.3
238.03,-0.07,0.12,-0.04,-8.65,1.78,-4.3
238.15,-0.07,0.11,-0.04,-8.65,1.78,-4.3
238.26,-0.09,0.11,-0.06,-8.64,1.78,-4.3
238.38,-0.11,0.1,-0.07,-8.64,1.78,-4.29
238.49,-0.11,0.1,-0.05,-8.64,1.78,-4.3
238.61,-0.09,0.1,0.0,-8.64,1.78,-4.3
238.73,-0.07,0.09,0.04,-8.64,1.78,-4.3
238.84,-0.08,0.08,-0.0,-8.64,1.78,-4.3
238.96,-0.1,0.11,-0.1,-8.64,1.78,-4.3
239.07,-0.1,0.17,-0.14,-8.63,1.78,-4.3
239.19,-0.09,0.21,-0.13,-8.63,1.78,-4.3
239.3,-0.08,0.22,-0.1,-8.63,1.78,-4.3
239.42,-0.07,0.22,-0.07,-8.63,1.79,-4.31
239.54,-0.07,0.17,-0.04,-8.63,1.79,-4.31
239.65,-0.07,0.1,-0.02,-8.64,1.78,-4.32
239.77,-0.07,0.09,-0.02,-8.64,1.78,-4.31
239.89,-0.08,0.1,-0.03,-8.64,1.78,-4.31
240.0,-0.08,0.12,-0.05,-8.64,1.78,-4.31
240.12,-0.08,0.1,-0.05,-8.64,1.77,-4.31
240.23,-0.09,0.08,-0.05,-8.64,1.77,-4.31
240.35,-0.1,0.08,-0.05,-8.64,1.77,-4.3
240.47,-0.1,0.11,-0.05,-8.64,1.78,-4.3
240.58,-0.09,0.12,-0.03,-8.64,1.78,-4.3
240.7,-0.07,0.11,0.03,-8.64,1.78,-4.31
240.81,-0.06,0.09,0.08,-8.64,1.78,-4.31
240.93,-0.05,0.08,0.11,-8.64,1.77,-4.31
241.05,-0.06,0.08,0.09,-8.64,1.77,-4.31
241.16,-0.07,0.09,0.04,-8.64,1.77,-4.31
241.28,-0.08,0.1,0.01,-8.64,1.77,-4.32
241.39,-0.08,0.1,0.01,-8.64,1.77,-4.32
241.51,-0.08,0.08,0.04,-8.64,1.77,-4.32
241.63,-0.08,0.07,0.05,-8.64,1.77,-4.32
241.74,-0.09,0.08,0.01,-8.64,1.77,-4.32
241.86,-0.08,0.09,-0.02,-8.64,1.77,-4.31
241.97,-0.06,0.08,-0.01,-8.64,1.77,-4.31
242.09,-0.05,0.08,0.02,-8.64,1.77,-4.31
242.2,-0.05,0.08,0.02,-8.64,1.77,-4.31
242.32,-0.06,0.08,-0.0,-8.63,1.77,-4.31
242.44,-0.07,0.08,-0.02,-8.63,1.77,-4.31
242.55,-0.08,0.09,-0.02,-8.64,1.77,-4.31
242.67,-0.07,0.1,0.0,-8.64,1.77,-4.31
242.78,-0.06,0.1,0.03,-8.63,1.77,-4.31
242.9,-0.06,0.1,0.01,-8.63,1.77,-4.32
243.02,-0.07,0.11,-0.04,-8.64,1.77,-4.32
243.13,-0.08,0.1,-0.07,-8.64,1.77,-4.32
243.25,-0.08,0.08,-0.07,-8.65,1.76,-4.32
243.36,-0.08,0.07,-0.05,-8.65,1.76,-4.32
243.48,-0.06,0.06,-0.01,-8.65,1.76,-4.32
243.6,-0.05,0.06,0.04,-8.65,1.76,-4.33
243.71,-0.05,0.06,0.02,-8.64,1.76,-4.33
243.83,-0.03,0.03,0.11,-8.65,1.75,-4.32
243.94,0.02,0.02,0.32,-8.65,1.75,-4.32
244.06,0.05,0.05,0.45,-8.65,1.75,-4.32
244.17,0.08,-0.01,0.67,-8.65,1.74,-4.32
244.29,0.09,-0.12,0.79,-8.65,1.74,-4.31
244.41,0.03,-0.11,0.55,-8.64,1.74,-4.31
244.52,-0.04,-0.02,0.24,-8.64,1.75,-4.32
244.64,-0.07,0.05,0.04,-8.63,1.75,-4.32
244.75,-0.08,0.08,-0.06,-8.63,1.76,-4.33
244.87,-0.08,0.09,-0.08,-8.63,1.76,-4.33
244.99,-0.07,0.07,-0.06,-8.63,1.75,-4.33
245.1,-0.07,0.05,-0.02,-8.63,1.75,-4.33
245.22,-0.06,0.05,-0.0,-8.63,1.75,-4.33
245.33,-0.07,0.08,-0.01,-8.63,1.76,-4.33
245.45,-0.08,0.11,-0.03,-8.63,1.76,-4.33
245.57,-0.09,0.11,-0.07,-8.63,1.76,-4.33
245.68,-0.1,0.1,-0.12,-8.63,1.76,-4.32
245.8,-0.1,0.1,-0.13,-8.63,1.75,-4.33
245.91,-0.1,0.11,-0.1,-8.63,1.75,-4.33
246.03,-0.08,0.09,-0.04,-8.63,1.75,-4.33
246.15,-0.07,0.07,-0.0,-8.63,1.75,-4.33
246.26,-0.07,0.06,-0.0,-8.63,1.75,-4.32
246.38,-0.07,0.06,-0.01,-8.63,1.76,-4.32
246.49,-0.08,0.07,-0.04,-8.64,1.76,-4.32
246.61,-0.1,0.08,-0.1,-8.64,1.75,-4.33
246.73,-0.1,0.07,-0.11,-8.64,1.75,-4.33
246.84,-0.1,0.07,-0.07,-8.64,1.75,-4.34
246.96,-0.08,0.07,-0.03,-8.64,1.75,-4.34
247.07,-0.07,0.1,-0.02,-8.64,1.75,-4.34
247.19,-0.07,0.12,-0.05,-8.64,1.75,-4.34
247.31,-0.08,0.13,-0.07,-8.63,1.75,-4.33
247.42,-0.08,0.13,-0.08,-8.63,1.76,-4.33
247.54,-0.09,0.11,-0.08,-8.63,1.76,-4.33
247.65,-0.09,0.09,-0.07,-8.63,1.76,-4.33
247.77,-0.09,0.08,-0.05,-8.63,1.75,-4.33
247.88,-0.09,0.08,-0.04,-8.63,1.75,-4.34
248.0,-0.08,0.07,-0.04,-8.63,1.75,-4.34
248.12,-0.08,0.06,-0.03,-8.63,1.75,-4.34
248.23,-0.08,0.05,-0.02,-8.63,1.75,-4.33
248.35,-0.08,0.05,-0.02,-8.63,1.75,-4.33
248.47,-0.08,0.07,-0.03,-8.63,1.75,-4.33
248.58,-0.07,0.1,-0.04,-8.63,1.75,-4.33
248.7,-0.07,0.11,-0.03,-8.63,1.74,-4.33
248.81,-0.06,0.1,-0.02,-8.63,1.74,-4.33
248.93,-0.06,0.08,-0.02,-8.63,1.74,-4.33
249.05,-0.07,0.07,-0.02,-8.64,1.75,-4.33
249.16,-0.07,0.06,-0.02,-8.64,1.75,-4.33
249.28,-0.08,0.05,-0.03,-8.64,1.75,-4.33
249.39,-0.09,0.06,-0.04,-8.64,1.75,-4.34
249.51,-0.08,0.06,-0.03,-8.64,1.75,-4.34
249.63,-0.08,0.06,-0.02,-8.63,1.75,-4.34
249.74,-0.07,0.06,-0.02,-8.63,1.74,-4.34
249.86,-0.07,0.06,-0.02,-8.63,1.74,-4.34
249.97,-0.07,0.06,-0.02,-8.63,1.74,-4.34
250.09,-0.07,0.06,-0.02,-8.63,1.73,-4.35
250.21,-0.07,0.07,-0.02,-8.63,1.74,-4.35
250.32,-0.07,0.08,-0.02,-8.63,1.73,-4.35
250.44,-0.08,0.08,-0.04,-8.63,1.74,-4.35
250.55,-0.08,0.07,-0.06,-8.63,1.74,-4.35
250.67,-0.08,0.07,-0.04,-8.63,1.74,-4.35
250.79,-0.07,0.06,-0.01,-8.63,1.74,-4.35
250.9,-0.07,0.06,-0.0,-8.63,1.74,-4.35
251.02,-0.07,0.07,-0.01,-8.63,1.74,-4.35
251.13,-0.08,0.07,-0.01,-8.62,1.74,-4.35
251.25,-0.09,0.06,-0.02,-8.62,1.74,-4.35
251.37,-0.09,0.06,-0.02,-8.63,1.74,-4.35
251.48,-0.09,0.08,-0.02,-8.63,1.74,-4.36
251.6,-0.09,0.08,-0.03,-8.63,1.74,-4.36
251.71,-0.09,0.07,-0.03,-8.63,1.74,-4.36
251.83,-0.08,0.06,-0.02,-8.63,1.74,-4.36
251.95,-0.07,0.06,-0.01,-8.63,1.74,-4.36
252.06,-0.06,0.07,-0.01,-8.63,1.73,-4.36
252.18,-0.06,0.07,-0.01,-8.63,1.73,-4.36
252.29,-0.07,0.07,-0.01,-8.63,1.73,-4.36
252.41,-0.07,0.07,-0.01,-8.63,1.73,-4.35
252.53,-0.07,0.07,-0.01,-8.63,1.73,-4.35
252.64,-0.08,0.06,-0.01,-8.63,1.73,-4.35
252.76,-0.08,0.06,-0.01,-8.63,1.73,-4.34
252.87,-0.07,0.07,-0.01,-8.63,1.73,-4.34
252.99,-0.06,0.08,-0.01,-8.63,1.73,-4.35
253.11,-0.06,0.08,-0.01,-8.63,1.74,-4.35
253.22,-0.06,0.07,-0.02,-8.63,1.74,-4.35
253.34,-0.06,0.06,-0.03,-8.63,1.74,-4.35
253.45,-0.07,0.06,-0.03,-8.63,1.73,-4.35
253.57,-0.07,0.05,-0.01,-8.63,1.73,-4.36
253.69,-0.06,0.05,0.01,-8.63,1.73,-4.36
253.8,-0.07,0.05,0.01,-8.63,1.73,-4.36
253.92,-0.07,0.05,-0.01,-8.63,1.73,-4.35
254.03,-0.08,0.06,-0.02,-8.63,1.73,-4.35
254.15,-0.08,0.06,-0.03,-8.63,1.73,-4.35
254.27,-0.07,0.05,-0.03,-8.63,1.73,-4.35
254.38,-0.06,0.04,-0.02,-8.63,1.73,-4.35
254.5,-0.06,0.04,-0.0,-8.63,1.73,-4.36
254.61,-0.07,0.05,-0.01,-8.64,1.73,-4.36
254.73,-0.07,0.07,-0.03,-8.64,1.73,-4.36
254.85,-0.07,0.08,-0.05,-8.64,1.73,-4.36
254.96,-0.06,0.07,-0.05,-8.64,1.73,-4.36
255.08,-0.06,0.06,-0.05,-8.64,1.73,-4.36
255.19,-0.07,0.06,-0.03,-8.63,1.73,-4.36
255.31,-0.08,0.05,-0.01,-8.63,1.73,-4.35
255.43,-0.08,0.06,-0.0,-8.63,1.73,-4.35
255.54,-0.08,0.07,0.0,-8.63,1.72,-4.36
255.66,-0.08,0.08,-0.0,-8.63,1.72,-4.36
255.77,-0.08,0.09,-0.01,-8.63,1.72,-4.36
255.89,-0.08,0.08,0.0,-8.63,1.72,-4.37
256.01,-0.07,0.07,0.01,-8.63,1.72,-4.37
256.12,-0.07,0.06,0.01,-8.63,1.72,-4.37
256.24,-0.08,0.06,-0.0,-8.63,1.73,-4.37
256.35,-0.08,0.06,-0.01,-8.63,1.73,-4.37
256.47,-0.08,0.06,-0.02,-8.63,1.73,-4.36
256.58,-0.08,0.07,-0.03,-8.63,1.73,-4.36
256.7,-0.08,0.06,-0.03,-8.63,1.73,-4.36
256.82,-0.07,0.05,-0.02,-8.63,1.73,-4.35
256.93,-0.07,0.04,-0.01,-8.63,1.73,-4.36
257.05,-0.06,0.04,0.0,-8.63,1.73,-4.36
257.17,-0.06,0.05,0.01,-8.63,1.73,-4.37
257.28,-0.06,0.06,0.01,-8.63,1.73,-4.37
257.4,-0.07,0.08,-0.01,-8.63,1.73,-4.36
257.51,-0.08,0.08,-0.02,-8.63,1.73,-4.35
257.63,-0.08,0.07,-0.03,-8.63,1.72,-4.36
257.74,-0.07,0.06,-0.03,-8.63,1.72,-4.36
257.86,-0.06,0.05,-0.02,-8.63,1.72,-4.36
257.98,-0.06,0.05,-0.0,-8.63,1.72,-4.36
258.09,-0.05,0.06,0.03,-8.63,1.72,-4.36
258.21,-0.05,0.05,0.04,-8.63,1.72,-4.37
258.32,-0.05,0.05,0.03,-8.63,1.72,-4.37
258.44,-0.06,0.06,0.01,-8.63,1.72,-4.37
258.55,-0.06,0.07,0.0,-8.63,1.72,-4.37
258.67,-0.07,0.07,-0.0,-8.63,1.72,-4.37
258.79,-0.07,0.07,-0.01,-8.63,1.72,-4.37
258.9,-0.07,0.07,-0.02,-8.63,1.72,-4.37
259.02,-0.07,0.07,-0.02,-8.63,1.72,-4.37
259.14,-0.07,0.07,-0.02,-8.63,1.72,-4.37
259.25,-0.07,0.07,-0.02,-8.63,1.72,-4.37
259.37,-0.08,0.05,-0.03,-8.63,1.72,-4.37
259.48,-0.09,0.04,-0.04,-8.63,1.72,-4.37
259.6,-0.09,0.04,-0.06,-8.63,1.72,-4.37
259.72,-0.09,0.05,-0.05,-8.63,1.72,-4.37
259.83,-0.07,0.05,-0.03,-8.63,1.72,-4.37
259.95,-0.06,0.07,-0.03,-8.63,1.72,-4.37
260.06,-0.06,0.07,-0.02,-8.63,1.72,-4.37
260.18,-0.06,0.07,0.0,-8.62,1.72,-4.37
260.3,-0.06,0.06,-0.0,-8.63,1.72,-4.37
260.41,-0.06,0.07,-0.02,-8.63,1.72,-4.37
260.53,-0.05,0.07,-0.02,-8.63,1.72,-4.37
260.64,-0.05,0.07,-0.02,-8.63,1.72,-4.37
260.76,-0.07,0.08,-0.03,-8.63,1.72,-4.37
260.88,-0.08,0.09,-0.03,-8.62,1.72,-4.37
260.99,-0.08,0.08,-0.03,-8.62,1.72,-4.37
261.11,-0.08,0.07,-0.02,-8.63,1.72,-4.38
261.22,-0.08,0.06,-0.03,-8.63,1.72,-4.38
261.34,-0.08,0.06,-0.03,-8.63,1.72,-4.38
261.45,-0.08,0.06,-0.02,-8.63,1.72,-4.38
261.57,-0.07,0.06,-0.01,-8.63,1.72,-4.38
261.69,-0.08,0.07,-0.01,-8.62,1.72,-4.38
261.8,-0.08,0.07,-0.02,-8.62,1.71,-4.38
261.92,-0.08,0.07,-0.04,-8.62,1.71,-4.38
262.04,-0.09,0.09,-0.08,-8.62,1.71,-4.37
262.15,-0.09,0.08,-0.1,-8.62,1.71,-4.37
262.27,-0.08,0.06,-0.07,-8.63,1.71,-4.37
262.38,-0.08,0.05,-0.04,-8.63,1.71,-4.37
262.5,-0.09,0.06,-0.04,-8.63,1.71,-4.38
262.62,-0.09,0.07,-0.06,-8.63,1.71,-4.37
262.73,-0.09,0.06,-0.06,-8.63,1.71,-4.37
262.85,-0.07,0.05,-0.04,-8.63,1.71,-4.37
262.96,-0.08,0.05,-0.02,-8.63,1.71,-4.37
263.08,-0.08,0.04,0.01,-8.63,1.71,-4.37
263.2,-0.08,0.04,0.03,-8.63,1.72,-4.37
263.31,-0.07,0.07,0.03,-8.63,1.72,-4.38
263.43,-0.06,0.1,0.02,-8.63,1.71,-4.37
263.54,-0.06,0.1,0.01,-8.63,1.71,-4.38
263.66,-0.06,0.08,0.01,-8.63,1.71,-4.38
263.77,-0.06,0.06,0.02,-8.63,1.71,-4.38
263.89,-0.07,0.05,0.02,-8.63,1.71,-4.38
264.01,-0.06,0.05,0.02,-8.63,1.71,-4.37
264.12,-0.06,0.05,0.03,-8.63,1.71,-4.36
264.24,-0.06,0.05,0.05,-8.63,1.71,-4.37
264.35,-0.06,0.07,0.07,-8.62,1.71,-4.37
264.47,-0.06,0.06,0.08,-8.62,1.71,-4.38
264.59,-0.07,0.05,0.05,-8.62,1.71,-4.38
264.7,-0.08,0.04,0.02,-8.62,1.71,-4.38
264.82,-0.08,0.03,0.01,-8.62,1.71,-4.38
264.93,-0.08,0.04,0.0,-8.62,1.71,-4.38
265.05,-0.08,0.05,-0.02,-8.63,1.71,-4.38
265.17,-0.07,0.06,-0.02,-8.63,1.71,-4.38
265.28,-0.06,0.05,-0.01,-8.63,1.71,-4.39
265.4,-0.06,0.05,-0.02,-8.63,1.71,-4.39
265.51,-0.08,0.04,-0.03,-8.63,1.71,-4.38
265.63,-0.09,0.04,-0.01,-8.63,1.71,-4.38
265.75,-0.08,0.05,0.01,-8.63,1.71,-4.38
265.86,-0.08,0.06,0.01,-8.63,1.71,-4.38
265.98,-0.08,0.07,0.02,-8.62,1.71,-4.38
266.09,-0.08,0.06,0.02,-8.62,1.71,-4.37
266.21,-0.08,0.06,0.02,-8.63,1.71,-4.37
266.32,-0.07,0.06,0.0,-8.63,1.71,-4.38
266.44,-0.07,0.08,-0.03,-8.63,1.71,-4.38
266.56,-0.07,0.08,-0.05,-8.63,1.71,-4.38
266.67,-0.07,0.07,-0.05,-8.62,1.71,-4.38
266.79,-0.07,0.08,-0.03,-8.62,1.71,-4.38
266.9,-0.06,0.09,-0.01,-8.62,1.71,-4.38
267.02,-0.06,0.08,-0.0,-8.63,1.71,-4.38
267.14,-0.06,0.07,-0.01,-8.63,1.7,-4.38
267.25,-0.07,0.06,-0.03,-8.63,1.7,-4.38
267.37,-0.07,0.05,-0.03,-8.63,1.7,-4.38
267.48,-0.08,0.03,-0.0,-8.63,1.7,-4.38
267.6,-0.09,0.05,0.0,-8.63,1.7,-4.38
267.72,-0.1,0.08,-0.04,-8.62,1.7,-4.38
267.83,-0.11,0.08,-0.07,-8.62,1.7,-4.38
267.95,-0.11,0.05,-0.05,-8.63,1.7,-4.38
268.06,-0.1,0.04,-0.02,-8.63,1.7,-4.38
268.18,-0.1,0.06,-0.03,-8.63,1.7,-4.38
268.3,-0.09,0.07,-0.02,-8.63,1.7,-4.38
268.41,-0.08,0.05,0.02,-8.63,1.71,-4.38
268.53,-0.08,0.04,0.03,-8.63,1.71,-4.38
268.64,-0.08,0.05,0.01,-8.63,1.71,-4.38
268.76,-0.07,0.05,0.01,-8.63,1.7,-4.38
268.88,-0.07,0.05,0.02,-8.63,1.7,-4.38
268.99,-0.06,0.04,0.01,-8.63,1.7,-4.39
269.11,-0.06,0.04,-0.01,-8.63,1.7,-4.39
269.22,-0.06,0.04,-0.03,-8.63,1.69,-4.39
269.34,-0.07,0.05,-0.05,-8.63,1.69,-4.39
269.45,-0.08,0.06,-0.06,-8.63,1.7,-4.39
269.57,-0.09,0.06,-0.06,-8.63,1.7,-4.38
269.69,-0.09,0.05,-0.04,-8.63,1.71,-4.39
269.8,-0.09,0.04,-0.04,-8.63,1.71,-4.39
269.92,-0.09,0.03,-0.06,-8.63,1.71,-4.39
270.04,-0.09,0.04,-0.07,-8.62,1.7,-4.39
270.15,-0.09,0.05,-0.06,-8.62,1.7,-4.39
270.27,-0.09,0.06,-0.04,-8.62,1.7,-4.39
270.38,-0.09,0.07,-0.03,-8.63,1.7,-4.38
270.5,-0.09,0.07,-0.03,-8.63,1.7,-4.38
270.61,-0.09,0.06,-0.04,-8.63,1.7,-4.38
270.73,-0.09,0.06,-0.05,-8.63,1.7,-4.38
270.85,-0.08,0.05,-0.03,-8.63,1.69,-4.38
270.96,-0.08,0.06,-0.01,-8.63,1.69,-4.38
271.08,-0.09,0.07,-0.04,-8.63,1.69,-4.38
271.2,-0.1,0.07,-0.06,-8.63,1.69,-4.38
271.31,-0.1,0.06,-0.06,-8.63,1.69,-4.38
271.43,-0.08,0.06,-0.05,-8.62,1.69,-4.39
271.54,-0.08,0.04,-0.06,-8.62,1.69,-4.39
271.66,-0.08,0.03,-0.07,-8.62,1.69,-4.39
271.77,-0.09,0.03,-0.06,-8.62,1.69,-4.4
271.89,-0.08,0.04,-0.03,-8.62,1.69,-4.4
272.01,-0.08,0.05,-0.01,-8.62,1.69,-4.4
272.12,-0.08,0.06,0.0,-8.62,1.69,-4.4
272.24,-0.07,0.06,0.0,-8.63,1.69,-4.4
272.36,-0.07,0.07,0.0,-8.62,1.69,-4.39
272.47,-0.06,0.08,0.0,-8.62,1.69,-4.38
272.59,-0.06,0.08,-0.0,-8.62,1.69,-4.38
272.7,-0.07,0.08,-0.01,-8.62,1.69,-4.39
272.82,-0.07,0.07,-0.01,-8.62,1.7,-4.39
272.93,-0.07,0.07,-0.02,-8.62,1.7,-4.39
273.05,-0.09,0.08,-0.04,-8.62,1.7,-4.39
273.17,-0.1,0.08,-0.05,-8.63,1.69,-4.38
273.28,-0.1,0.06,-0.04,-8.63,1.69,-4.39
273.4,-0.09,0.05,-0.02,-8.63,1.69,-4.39
273.52,-0.08,0.05,-0.01,-8.63,1.69,-4.39
273.63,-0.07,0.05,-0.01,-8.62,1.69,-4.38
273.75,-0.06,0.05,-0.01,-8.62,1.69,-4.38
273.86,-0.06,0.05,-0.01,-8.62,1.69,-4.38
273.98,-0.07,0.05,-0.01,-8.62,1.69,-4.38
274.1,-0.08,0.06,-0.01,-8.62,1.69,-4.39
274.21,-0.09,0.07,-0.02,-8.62,1.69,-4.39
274.33,-0.1,0.07,-0.02,-8.62,1.69,-4.4
274.44,-0.11,0.07,-0.03,-8.62,1.69,-4.39
274.56,-0.11,0.07,-0.05,-8.62,1.69,-4.39
274.67,-0.1,0.06,-0.06,-8.62,1.69,-4.38
274.79,-0.09,0.04,-0.04,-8.62,1.69,-4.38
274.91,-0.08,0.04,-0.03,-8.62,1.69,-4.38
275.02,-0.08,0.04,-0.02,-8.62,1.69,-4.39
275.14,-0.07,0.04,-0.01,-8.62,1.69,-4.39
275.26,-0.06,0.04,-0.01,-8.62,1.69,-4.39
275.37,-0.06,0.04,-0.01,-8.63,1.69,-4.39
275.49,-0.06,0.03,-0.01,-8.62,1.69,-4.39
275.6,-0.07,0.03,-0.01,-8.62,1.69,-4.38
275.72,-0.08,0.03,-0.01,-8.62,1.69,-4.38
275.83,-0.08,0.03,-0.02,-8.62,1.69,-4.39
275.95,-0.09,0.03,-0.02,-8.62,1.69,-4.4
276.07,-0.08,0.03,-0.03,-8.62,1.69,-4.4
276.18,-0.08,0.04,-0.04,-8.62,1.69,-4.4
276.3,-0.08,0.05,-0.04,-8.62,1.69,-4.4
276.42,-0.08,0.05,-0.03,-8.62,1.69,-4.4
276.53,-0.08,0.05,-0.01,-8.62,1.69,-4.39
276.65,-0.08,0.04,-0.0,-8.62,1.69,-4.39
276.76,-0.07,0.04,0.0,-8.62,1.69,-4.39
276.88,-0.07,0.04,-0.0,-8.62,1.69,-4.38
277.0,-0.08,0.05,-0.02,-8.62,1.69,-4.39
277.11,-0.08,0.06,-0.02,-8.62,1.69,-4.39
277.23,-0.08,0.07,-0.01,-8.62,1.69,-4.39
277.34,-0.07,0.08,-0.01,-8.62,1.69,-4.39
277.46,-0.07,0.07,-0.01,-8.62,1.69,-4.39
277.57,-0.07,0.05,-0.01,-8.62,1.68,-4.39
277.69,-0.09,0.05,-0.05,-8.62,1.68,-4.4
277.81,-0.1,0.05,-0.08,-8.62,1.68,-4.4
277.92,-0.1,0.03,-0.07,-8.62,1.68,-4.39
278.04,-0.09,0.02,-0.04,-8.62,1.68,-4.39
278.16,-0.08,0.02,-0.02,-8.62,1.68,-4.39
278.27,-0.08,0.02,-0.0,-8.62,1.68,-4.39
278.39,-0.08,0.02,-0.0,-8.62,1.68,-4.39
278.5,-0.08,0.03,0.0,-8.63,1.68,-4.39
278.62,-0.09,0.04,0.01,-8.62,1.68,-4.39
278.73,-0.09,0.05,0.01,-8.62,1.68,-4.39
278.85,-0.09,0.06,-0.01,-8.62,1.68,-4.39
278.97,-0.08,0.06,-0.02,-8.62,1.68,-4.39
279.08,-0.08,0.06,-0.04,-8.62,1.68,-4.39
279.2,-0.08,0.06,-0.05,-8.62,1.68,-4.39
279.31,-0.09,0.06,-0.06,-8.62,1.69,-4.38
279.43,-0.09,0.06,-0.05,-8.62,1.69,-4.38
279.55,-0.09,0.06,-0.03,-8.63,1.69,-4.38
279.66,-0.08,0.06,-0.01,-8.63,1.69,-4.39
279.78,-0.08,0.07,0.0,-8.63,1.69,-4.39
279.89,-0.07,0.08,0.01,-8.62,1.69,-4.39
280.01,-0.06,0.07,0.01,-8.62,1.69,-4.39
280.13,-0.06,0.07,0.0,-8.62,1.68,-4.39
280.24,-0.07,0.06,-0.01,-8.62,1.68,-4.39
280.36,-0.07,0.05,-0.02,-8.62,1.68,-4.39
280.47,-0.08,0.03,-0.02,-8.62,1.68,-4.39
280.59,-0.08,0.02,-0.02,-8.62,1.67,-4.4
280.71,-0.08,0.04,-0.02,-8.62,1.67,-4.4
280.82,-0.08,0.05,-0.02,-8.62,1.67,-4.4
280.94,-0.07,0.05,-0.0,-8.62,1.67,-4.4
281.05,-0.07,0.05,-0.0,-8.62,1.67,-4.4
281.17,-0.08,0.05,-0.02,-8.62,1.68,-4.4
281.29,-0.09,0.05,-0.04,-8.63,1.69,-4.4
281.4,-0.09,0.05,-0.04,-8.63,1.69,-4.4
281.52,-0.09,0.04,-0.02,-8.63,1.68,-4.4
281.63,-0.08,0.04,-0.0,-8.63,1.68,-4.4
281.75,-0.08,0.04,-0.0,-8.62,1.68,-4.4
281.87,-0.08,0.04,-0.01,-8.62,1.68,-4.4
281.98,-0.09,0.05,-0.02,-8.62,1.68,-4.4
282.1,-0.09,0.04,-0.02,-8.62,1.68,-4.4
282.21,-0.08,0.04,-0.01,-8.62,1.68,-4.4
282.33,-0.08,0.04,-0.02,-8.62,1.68,-4.4
282.45,-0.08,0.05,-0.02,-8.62,1.68,-4.4
282.56,-0.08,0.05,-0.02,-8.62,1.68,-4.4
282.68,-0.08,0.06,-0.02,-8.62,1.68,-4.4
282.79,-0.07,0.06,-0.02,-8.62,1.68,-4.4
282.91,-0.06,0.06,-0.01,-8.62,1.68,-4.4
283.03,-0.06,0.06,-0.01,-8.62,1.68,-4.4
283.14,-0.07,0.05,-0.01,-8.62,1.68,-4.4
283.26,-0.08,0.04,-0.01,-8.62,1.68,-4.39
283.37,-0.07,0.03,-0.01,-8.62,1.68,-4.39
283.49,-0.07,0.04,-0.02,-8.62,1.68,-4.39
283.61,-0.07,0.05,-0.02,-8.62,1.68,-4.4
283.72,-0.07,0.06,-0.01,-8.62,1.68,-4.4
283.84,-0.06,0.06,-0.02,-8.62,1.68,-4.4
283.95,-0.06,0.05,-0.02,-8.62,1.68,-4.4
284.07,-0.07,0.04,-0.02,-8.62,1.68,-4.4
284.19,-0.07,0.04,-0.01,-8.62,1.68,-4.4
284.3,-0.07,0.04,-0.02,-8.62,1.68,-4.4
284.42,-0.07,0.06,-0.02,-8.62,1.68,-4.4
284.53,-0.07,0.07,0.01,-8.62,1.68,-4.4
284.65,-0.07,0.06,0.04,-8.62,1.68,-4.4
284.77,-0.06,0.06,0.05,-8.62,1.68,-4.4
284.88,-0.07,0.05,0.02,-8.62,1.68,-4.4
285.0,-0.08,0.04,0.0,-8.62,1.68,-4.4
285.11,-0.08,0.04,-0.02,-8.62,1.68,-4.4
285.23,-0.08,0.03,-0.03,-8.62,1.68,-4.4
285.35,-0.07,0.03,-0.05,-8.62,1.68,-4.4
285.46,-0.07,0.04,-0.05,-8.62,1.68,-4.4
285.58,-0.07,0.06,-0.04,-8.62,1.68,-4.4
285.69,-0.07,0.06,-0.03,-8.62,1.68,-4.4
285.81,-0.08,0.06,-0.02,-8.62,1.68,-4.4
285.92,-0.08,0.05,-0.01,-8.63,1.68,-4.4
286.04,-0.09,0.05,-0.01,-8.63,1.68,-4.4
286.16,-0.09,0.05,-0.02,-8.63,1.67,-4.41
286.27,-0.1,0.05,-0.02,-8.63,1.67,-4.41
286.39,-0.1,0.05,-0.01,-8.63,1.68,-4.41
286.51,-0.09,0.05,-0.01,-8.63,1.68,-4.41
286.62,-0.08,0.05,-0.0,-8.63,1.68,-4.4
286.74,-0.07,0.05,-0.01,-8.62,1.68,-4.4
286.85,-0.07,0.05,-0.0,-8.62,1.68,-4.4
286.97,-0.06,0.04,0.0,-8.62,1.68,-4.41
287.08,-0.06,0.04,-0.0,-8.62,1.68,-4.41
287.2,-0.07,0.04,-0.02,-8.62,1.68,-4.41
287.32,-0.07,0.04,-0.02,-8.62,1.68,-4.41
287.43,-0.08,0.04,-0.01,-8.62,1.68,-4.41
287.55,-0.08,0.04,0.01,-8.62,1.68,-4.41
287.67,-0.07,0.04,0.02,-8.62,1.68,-4.41
287.78,-0.07,0.03,0.02,-8.62,1.68,-4.41
287.9,-0.06,0.03,0.02,-8.62,1.68,-4.41
288.01,-0.06,0.04,0.03,-8.62,1.68,-4.41
288.13,-0.07,0.04,0.05,-8.62,1.68,-4.41
288.24,-0.08,0.04,0.06,-8.61,1.68,-4.41
288.36,-0.08,0.04,0.05,-8.61,1.67,-4.41
288.48,-0.08,0.04,0.02,-8.61,1.67,-4.41
288.59,-0.08,0.03,0.01,-8.62,1.67,-4.41
288.71,-0.08,0.03,-0.01,-8.62,1.67,-4.41
288.82,-0.07,0.04,-0.03,-8.62,1.67,-4.41
288.94,-0.07,0.05,-0.04,-8.62,1.67,-4.41
289.05,-0.07,0.05,-0.02,-8.62,1.67,-4.4
289.17,-0.07,0.06,-0.01,-8.62,1.67,-4.4
289.29,-0.07,0.06,-0.02,-8.62,1.67,-4.4
289.4,-0.08,0.06,-0.02,-8.62,1.68,-4.41
289.52,-0.08,0.05,-0.03,-8.62,1.68,-4.41
289.64,-0.08,0.04,-0.03,-8.62,1.68,-4.42
289.75,-0.08,0.03,-0.02,-8.62,1.68,-4.42
289.87,-0.08,0.03,-0.03,-8.62,1.68,-4.42
289.98,-0.09,0.03,-0.02,-8.62,1.67,-4.41
290.1,-0.08,0.03,-0.01,-8.62,1.67,-4.41
290.22,-0.08,0.03,0.01,-8.62,1.67,-4.41
290.33,-0.08,0.02,0.01,-8.62,1.67,-4.41
290.45,-0.08,0.03,0.01,-8.62,1.67,-4.41
290.56,-0.08,0.03,0.01,-8.62,1.67,-4.41
290.68,-0.08,0.03,0.01,-8.62,1.67,-4.41
290.8,-0.07,0.02,0.01,-8.62,1.67,-4.41
290.91,-0.07,0.02,0.0,-8.62,1.67,-4.4
291.03,-0.07,0.02,-0.01,-8.62,1.67,-4.4
291.14,-0.07,0.03,-0.02,-8.62,1.67,-4.4
291.26,-0.07,0.04,-0.02,-8.62,1.67,-4.41
291.38,-0.08,0.05,-0.02,-8.62,1.67,-4.41
291.49,-0.08,0.06,-0.03,-8.62,1.67,-4.4
291.61,-0.08,0.06,-0.03,-8.62,1.67,-4.4
291.72,-0.09,0.05,-0.03,-8.62,1.67,-4.41
291.84,-0.08,0.04,-0.04,-8.62,1.67,-4.41
291.95,-0.07,0.04,-0.03,-8.63,1.67,-4.42
292.07,-0.06,0.06,-0.03,-8.63,1.68,-4.42
292.19,-0.06,0.07,-0.04,-8.63,1.68,-4.42
292.3,-0.06,0.06,-0.04,-8.63,1.68,-4.42
292.42,-0.06,-0.01,-0.01,-8.63,1.67,-4.41
292.54,-0.06,-0.1,0.02,-8.63,1.67,-4.41
292.65,-0.05,-0.11,0.05,-8.63,1.67,-4.41
292.77,-0.07,-0.03,0.02,-8.63,1.67,-4.41
292.88,-0.09,0.03,-0.03,-8.62,1.67,-4.42
293.0,-0.09,0.03,-0.04,-8.62,1.67,-4.42
293.11,-0.09,0.03,-0.03,-8.62,1.67,-4.42
293.23,-0.08,0.04,-0.03,-8.62,1.68,-4.42
293.35,-0.07,0.04,0.0,-8.62,1.67,-4.42
293.46,-0.07,0.03,0.03,-8.62,1.67,-4.41
293.58,-0.08,0.03,0.0,-8.62,1.67,-4.41
293.69,-0.09,0.06,-0.04,-8.62,1.67,-4.41
293.81,-0.1,0.07,-0.07,-8.62,1.67,-4.41
293.93,-0.1,0.07,-0.06,-8.62,1.67,-4.41
294.04,-0.09,0.06,-0.03,-8.61,1.66,-4.41
294.16,-0.08,0.05,-0.04,-8.61,1.66,-4.41
294.27,-0.08,0.06,-0.04,-8.61,1.67,-4.41
294.39,-0.07,0.06,-0.02,-8.61,1.67,-4.41
294.51,-0.07,0.05,-0.01,-8.61,1.67,-4.41
294.62,-0.06,0.04,0.02,-8.61,1.67,-4.4
294.74,-0.06,0.07,0.03,-8.61,1.67,-4.4
294.85,-0.07,0.09,-0.0,-8.62,1.66,-4.41
294.97,-0.07,0.07,-0.02,-8.62,1.67,-4.42
295.09,-0.08,0.05,-0.05,-8.62,1.67,-4.42
295.2,-0.09,0.06,-0.13,-8.62,1.67,-4.42
295.32,-0.1,0.08,-0.18,-8.63,1.66,-4.42
295.43,-0.11,0.06,-0.18,-8.63,1.67,-4.42
295.55,-0.13,0.04,-0.18,-8.62,1.67,-4.42
295.67,-0.12,0.03,-0.15,-8.62,1.67,-4.42
295.78,-0.1,0.02,-0.07,-8.62,1.67,-4.41
295.9,-0.07,0.02,-0.02,-8.62,1.66,-4.41
296.01,-0.05,0.02,-0.01,-8.62,1.66,-4.41
296.13,-0.05,0.03,-0.0,-8.62,1.67,-4.41
296.25,-0.06,0.05,-0.02,-8.62,1.67,-4.42
296.36,-0.06,0.04,-0.03,-8.62,1.67,-4.42
296.48,-0.07,0.04,-0.04,-8.62,1.67,-4.43
296.59,-0.09,0.05,-0.06,-8.61,1.67,-4.42
296.71,-0.11,0.05,-0.12,-8.61,1.67,-4.42
296.83,-0.13,0.05,-0.2,-8.62,1.67,-4.41
296.94,-0.14,0.06,-0.27,-8.62,1.67,-4.41
297.06,-0.15,0.06,-0.27,-8.62,1.67,-4.41
297.17,-0.13,0.05,-0.2,-8.62,1.67,-4.4
297.29,-0.1,0.04,-0.11,-8.62,1.67,-4.4
297.41,-0.08,0.05,-0.08,-8.63,1.67,-4.4
297.52,-0.07,0.06,-0.07,-8.63,1.67,-4.41
297.64,-0.06,0.05,-0.04,-8.63,1.67,-4.41
297.75,-0.07,0.04,-0.01,-8.62,1.67,-4.42
297.87,-0.09,0.04,-0.01,-8.62,1.67,-4.42
297.99,-0.1,0.04,-0.03,-8.62,1.67,-4.42
298.1,-0.1,0.04,-0.03,-8.62,1.67,-4.41
298.22,-0.08,0.05,-0.01,-8.62,1.68,-4.41
298.33,-0.07,0.05,-0.01,-8.61,1.68,-4.41
298.45,-0.06,0.04,0.0,-8.61,1.67,-4.41
298.57,-0.05,0.02,0.02,-8.61,1.67,-4.41
298.68,-0.05,0.02,0.01,-8.62,1.67,-4.41
298.8,-0.06,0.05,-0.04,-8.62,1.66,-4.41
298.91,-0.08,0.08,-0.13,-8.62,1.66,-4.41
299.03,-0.11,0.09,-0.2,-8.62,1.66,-4.41
299.15,-0.09,0.07,-0.13,-8.62,1.67,-4.41
299.26,-0.05,0.04,-0.02,-8.62,1.67,-4.41
299.38,-0.03,0.02,0.04,-8.62,1.67,-4.42
299.49,-0.03,0.02,0.03,-8.62,1.67,-4.42
299.61,-0.04,0.02,-0.0,-8.62,1.67,-4.43
299.73,-0.05,0.01,-0.02,-8.62,1.67,-4.42
299.84,-0.06,0.02,-0.02,-8.62,1.67,-4.42
299.96,-0.06,0.04,-0.02,-8.62,1.67,-4.42
300.07,-0.06,0.05,-0.01,-8.62,1.67,-4.42
300.19,-0.07,0.03,-0.01,-8.62,1.67,-4.42
300.31,-0.07,0.01,-0.03,-8.62,1.67,-4.42
300.42,-0.09,-0.01,-0.06,-8.62,1.67,-4.42
300.54,-0.09,0.0,-0.09,-8.62,1.67,-4.42
300.65,-0.08,0.02,-0.06,-8.62,1.67,-4.42
300.77,-0.06,0.01,-0.02,-8.62,1.66,-4.43
300.89,-0.04,0.0,0.01,-8.62,1.66,-4.43
301.0,-0.03,0.02,0.03,-8.62,1.66,-4.43
301.12,-0.04,0.05,0.02,-8.62,1.66,-4.43
301.23,-0.05,0.06,-0.01,-8.62,1.66,-4.42
301.35,-0.07,0.04,-0.03,-8.62,1.66,-4.42
301.47,-0.08,0.02,-0.04,-8.61,1.66,-4.42
301.58,-0.07,0.03,-0.0,-8.62,1.66,-4.41
301.7,-0.07,0.03,0.02,-8.62,1.66,-4.41
301.81,-0.07,0.03,-0.0,-8.63,1.66,-4.41
301.93,-0.08,0.02,-0.02,-8.63,1.66,-4.41
302.05,-0.08,0.03,-0.03,-8.62,1.66,-4.41
302.16,-0.08,0.04,-0.03,-8.62,1.67,-4.41
302.28,-0.07,0.05,-0.01,-8.62,1.67,-4.41
302.39,-0.07,0.05,-0.01,-8.61,1.67,-4.41
302.51,-0.07,0.06,-0.03,-8.61,1.67,-4.42
302.63,-0.07,0.06,-0.04,-8.61,1.67,-4.42
302.74,-0.07,0.05,-0.02,-8.62,1.67,-4.42
302.86,-0.07,0.06,0.01,-8.62,1.67,-4.42
302.97,-0.06,0.07,0.03,-8.62,1.67,-4.42
303.09,-0.07,0.06,0.01,-8.62,1.67,-4.42
303.2,-0.08,0.05,-0.03,-8.62,1.66,-4.42
303.32,-0.08,0.04,-0.04,-8.62,1.66,-4.42
303.44,-0.09,0.04,-0.04,-8.62,1.66,-4.41
303.55,-0.09,0.05,-0.04,-8.62,1.65,-4.41
303.67,-0.08,0.05,-0.03,-8.62,1.66,-4.42
303.78,-0.07,0.05,-0.02,-8.62,1.66,-4.42
303.9,-0.07,0.05,-0.01,-8.62,1.66,-4.42
304.02,-0.06,0.04,0.0,-8.61,1.67,-4.42
304.13,-0.06,0.03,0.01,-8.61,1.67,-4.42
304.25,-0.07,0.04,-0.01,-8.62,1.67,-4.42
304.36,-0.08,0.04,-0.02,-8.62,1.67,-4.42
304.48,-0.08,0.04,-0.02,-8.62,1.66,-4.43
304.6,-0.07,0.04,-0.02,-8.62,1.66,-4.42
304.71,-0.06,0.04,-0.02,-8.62,1.66,-4.41
304.83,-0.06,0.04,-0.02,-8.62,1.66,-4.41
304.95,-0.06,0.03,-0.02,-8.62,1.66,-4.4
305.06,-0.06,0.04,-0.03,-8.62,1.66,-4.41
305.18,-0.07,0.03,-0.04,-8.62,1.66,-4.41
305.29,-0.08,0.03,-0.05,-8.61,1.66,-4.42
305.41,-0.08,0.03,-0.05,-8.62,1.66,-4.42
305.52,-0.07,0.03,-0.06,-8.62,1.66,-4.42
305.64,-0.07,0.03,-0.05,-8.62,1.66,-4.42
305.76,-0.07,0.03,-0.04,-8.62,1.66,-4.42
305.87,-0.08,0.03,-0.04,-8.63,1.66,-4.42
305.99,-0.07,0.03,-0.04,-8.62,1.66,-4.41
306.11,-0.06,0.03,-0.03,-8.62,1.66,-4.41
306.22,-0.06,0.02,0.0,-8.62,1.67,-4.41
306.34,-0.06,0.03,0.02,-8.62,1.67,-4.42
306.45,-0.06,0.04,0.01,-8.62,1.67,-4.42
306.57,-0.06,0.05,0.0,-8.62,1.67,-4.42
306.68,-0.06,0.05,-0.0,-8.61,1.66,-4.42
306.8,-0.06,0.05,0.0,-8.62,1.66,-4.42
306.92,-0.05,0.05,0.0,-8.62,1.66,-4.41
307.03,-0.06,0.04,-0.0,-8.62,1.66,-4.42
307.15,-0.07,0.04,-0.0,-8.62,1.66,-4.42
307.26,-0.08,0.04,0.0,-8.62,1.66,-4.43
307.38,-0.08,0.04,-0.0,-8.62,1.66,-4.43
307.5,-0.08,0.03,-0.01,-8.62,1.66,-4.42
307.61,-0.08,0.03,-0.02,-8.62,1.66,-4.42
307.73,-0.08,0.04,-0.02,-8.62,1.66,-4.42
307.84,-0.08,0.04,-0.02,-8.61,1.66,-4.42
307.96,-0.08,0.05,-0.02,-8.62,1.66,-4.42
308.08,-0.07,0.07,-0.02,-8.62,1.66,-4.42
308.19,-0.06,0.06,0.0,-8.62,1.66,-4.43
308.31,-0.06,0.05,0.01,-8.61,1.66,-4.43
308.42,-0.06,0.05,0.01,-8.61,1.65,-4.42
308.54,-0.06,0.05,0.0,-8.61,1.65,-4.42
308.66,-0.07,0.05,-0.02,-8.62,1.65,-4.42
308.77,-0.07,0.05,-0.04,-8.62,1.66,-4.42
308.89,-0.07,0.05,-0.05,-8.61,1.66,-4.42
309.0,-0.06,0.05,-0.04,-8.61,1.66,-4.43
309.12,-0.06,0.05,-0.03,-8.61,1.66,-4.43
309.23,-0.07,0.04,-0.02,-8.62,1.66,-4.43
309.35,-0.07,0.04,-0.02,-8.62,1.66,-4.43
309.47,-0.07,0.02,-0.03,-8.62,1.67,-4.43
309.58,-0.07,0.01,-0.03,-8.62,1.67,-4.42
309.7,-0.07,0.0,-0.03,-8.62,1.66,-4.42
309.82,-0.07,0.01,-0.02,-8.62,1.66,-4.43
309.93,-0.07,0.03,-0.01,-8.62,1.66,-4.43
310.05,-0.07,0.04,-0.02,-8.62,1.66,-4.43
310.16,-0.06,0.03,-0.02,-8.62,1.66,-4.43
310.28,-0.06,0.03,-0.03,-8.62,1.66,-4.43
310.39,-0.06,0.03,-0.03,-8.62,1.66,-4.43
310.51,-0.07,0.03,-0.04,-8.62,1.66,-4.43
310.63,-0.07,0.03,-0.04,-8.62,1.66,-4.43
310.74,-0.07,0.04,-0.03,-8.62,1.66,-4.43
310.86,-0.06,0.04,-0.03,-8.62,1.66,-4.43
310.98,-0.06,0.04,-0.04,-8.62,1.66,-4.43
311.09,-0.07,0.04,-0.03,-8.62,1.66,-4.43
311.21,-0.07,0.05,-0.01,-8.62,1.66,-4.43
311.32,-0.06,0.05,0.0,-8.62,1.66,-4.43
311.44,-0.06,0.03,-0.03,-8.62,1.66,-4.42
311.56,-0.06,0.01,-0.06,-8.62,1.65,-4.42
311.67,-0.05,0.01,-0.01,-8.61,1.65,-4.42
311.79,-0.01,-0.04,0.14,-8.61,1.65,-4.42
311.9,0.0,-0.07,0.24,-8.62,1.65,-4.41
312.02,-0.03,-0.0,0.09,-8.62,1.66,-4.42
312.14,-0.08,0.07,-0.11,-8.62,1.66,-4.42
312.25,-0.09,0.07,-0.15,-8.62,1.66,-4.43
312.37,-0.08,0.06,-0.13,-8.61,1.66,-4.43
312.48,-0.08,0.05,-0.09,-8.61,1.66,-4.43
312.6,-0.08,0.04,-0.06,-8.62,1.66,-4.42
312.72,-0.08,0.04,-0.04,-8.62,1.65,-4.42
312.83,-0.09,0.03,-0.03,-8.62,1.65,-4.42
312.95,-0.08,0.03,-0.04,-8.62,1.65,-4.43
313.06,-0.08,0.03,-0.04,-8.61,1.66,-4.43
313.18,-0.07,0.03,-0.04,-8.61,1.66,-4.44
313.3,-0.07,0.03,-0.03,-8.61,1.65,-4.44
313.41,-0.06,0.03,-0.01,-8.61,1.65,-4.43
313.53,-0.06,0.04,-0.02,-8.61,1.65,-4.43
313.64,-0.06,0.05,-0.01,-8.61,1.65,-4.43
313.76,-0.06,0.04,0.02,-8.61,1.65,-4.42
313.88,-0.06,0.04,0.04,-8.61,1.65,-4.43
313.99,-0.07,0.04,0.03,-8.61,1.66,-4.43
314.11,-0.07,0.04,0.01,-8.61,1.66,-4.43
314.22,-0.07,0.04,0.01,-8.61,1.66,-4.43
314.34,-0.07,0.04,-0.0,-8.61,1.66,-4.43
314.45,-0.07,0.04,-0.02,-8.61,1.66,-4.43
314.57,-0.08,0.04,-0.04,-8.62,1.65,-4.43
314.69,-0.08,0.04,-0.05,-8.62,1.66,-4.43
314.8,-0.08,0.04,-0.04,-8.62,1.66,-4.43
314.92,-0.08,0.04,-0.02,-8.62,1.66,-4.43
315.03,-0.08,0.04,-0.01,-8.62,1.66,-4.43
315.15,-0.08,0.03,-0.01,-8.62,1.65,-4.43
315.27,-0.08,0.02,-0.01,-8.62,1.65,-4.43
315.38,-0.07,0.01,-0.01,-8.62,1.65,-4.43
315.5,-0.06,0.01,-0.01,-8.62,1.65,-4.43
315.61,-0.06,0.02,-0.0,-8.62,1.66,-4.43
315.73,-0.06,0.02,-0.01,-8.62,1.66,-4.42
315.85,-0.05,0.03,0.01,-8.62,1.66,-4.42
315.96,-0.06,0.03,0.02,-8.62,1.66,-4.42
316.08,-0.07,0.02,0.01,-8.62,1.66,-4.43
316.19,-0.07,0.03,-0.0,-8.62,1.66,-4.43
316.31,-0.08,0.04,-0.02,-8.62,1.65,-4.43
316.43,-0.08,0.04,-0.04,-8.62,1.65,-4.43
316.54,-0.08,0.04,-0.05,-8.62,1.65,-4.43
316.66,-0.08,0.04,-0.04,-8.61,1.65,-4.43
316.77,-0.07,0.03,-0.03,-8.61,1.65,-4.43
316.89,-0.08,0.02,-0.01,-8.61,1.65,-4.43
317.01,-0.07,0.01,-0.01,-8.61,1.65,-4.43
317.12,-0.07,0.02,-0.0,-8.61,1.65,-4.43
317.24,-0.06,0.02,-0.01,-8.61,1.64,-4.43
317.36,-0.05,0.03,-0.02,-8.62,1.65,-4.43
317.47,-0.06,0.03,-0.02,-8.62,1.65,-4.43
317.59,-0.06,0.04,-0.02,-8.62,1.65,-4.42
317.7,-0.06,0.04,-0.02,-8.62,1.65,-4.42
317.82,-0.06,0.03,-0.02,-8.62,1.65,-4.42
317.93,-0.06,0.03,-0.02,-8.62,1.65,-4.42
318.05,-0.07,0.03,-0.01,-8.62,1.65,-4.43
318.17,-0.07,0.03,0.01,-8.62,1.65,-4.43
318.28,-0.06,0.02,0.02,-8.62,1.65,-4.42
318.4,-0.06,0.03,0.03,-8.62,1.65,-4.42
318.51,-0.06,0.03,0.01,-8.61,1.65,-4.43
318.63,-0.07,0.04,0.0,-8.61,1.66,-4.43
318.75,-0.07,0.03,-0.0,-8.61,1.66,-4.44
318.86,-0.07,0.02,-0.0,-8.62,1.65,-4.44
318.98,-0.07,0.02,-0.01,-8.62,1.65,-4.43
319.09,-0.07,0.02,-0.03,-8.61,1.65,-4.43
319.21,-0.07,0.04,-0.03,-8.61,1.65,-4.42
319.33,-0.07,0.05,-0.03,-8.61,1.65,-4.42
319.44,-0.06,0.05,-0.03,-8.61,1.66,-4.42
319.56,-0.06,0.04,-0.03,-8.61,1.65,-4.42
319.67,-0.06,0.04,-0.03,-8.6,1.66,-4.42
319.79,-0.07,0.03,-0.02,-8.61,1.66,-4.42
319.91,-0.06,0.02,-0.03,-8.61,1.66,-4.42
320.02,-0.06,0.02,-0.04,-8.61,1.65,-4.42
320.14,-0.05,0.03,-0.05,-8.62,1.66,-4.42
320.25,-0.04,0.04,-0.05,-8.62,1.66,-4.42
320.37,-0.03,0.04,-0.02,-8.62,1.65,-4.43
320.49,-0.04,0.04,-0.02,-8.62,1.65,-4.43
320.6,-0.05,0.04,-0.03,-8.62,1.65,-4.43
320.72,-0.06,0.04,-0.03,-8.62,1.65,-4.43
320.83,-0.06,0.04,-0.04,-8.62,1.65,-4.43
320.95,-0.07,0.03,-0.04,-8.61,1.65,-4.43
321.07,-0.07,0.02,-0.01,-8.61,1.65,-4.43
321.18,-0.06,0.01,0.01,-8.6,1.65,-4.43
321.3,-0.06,0.02,-0.0,-8.6,1.65,-4.43
321.41,-0.06,0.04,-0.03,-8.61,1.64,-4.43
321.53,-0.05,0.04,-0.03,-8.61,1.64,-4.43
321.64,-0.06,0.04,-0.05,-8.62,1.64,-4.43
321.76,-0.07,0.07,-0.14,-8.62,1.64,-4.43
321.88,-0.09,0.14,-0.22,-8.61,1.64,-4.43
321.99,-0.09,0.15,-0.18,-8.61,1.65,-4.43
322.11,-0.08,0.1,-0.11,-8.61,1.65,-4.43
322.23,-0.07,0.06,-0.06,-8.61,1.65,-4.43
322.34,-0.07,0.03,-0.03,-8.61,1.65,-4.42
322.46,-0.07,0.02,-0.02,-8.61,1.65,-4.42
322.57,-0.07,0.03,-0.01,-8.61,1.64,-4.43
322.69,-0.07,0.04,0.0,-8.61,1.64,-4.44
322.8,-0.06,0.04,0.0,-8.61,1.64,-4.44
322.92,-0.05,0.04,0.02,-8.62,1.65,-4.44
323.04,-0.05,0.03,0.02,-8.62,1.65,-4.43
323.15,-0.06,0.03,-0.01,-8.62,1.65,-4.42
323.27,-0.07,0.04,-0.03,-8.62,1.65,-4.42
323.39,-0.07,0.04,-0.03,-8.62,1.65,-4.43
323.5,-0.07,0.04,-0.03,-8.62,1.65,-4.44
323.62,-0.07,0.03,-0.02,-8.62,1.65,-4.44
323.73,-0.07,0.03,-0.01,-8.62,1.64,-4.43
323.85,-0.06,0.03,-0.01,-8.62,1.64,-4.43
323.96,-0.05,0.03,-0.01,-8.62,1.64,-4.44
324.08,-0.05,0.03,-0.01,-8.62,1.64,-4.44
324.2,-0.05,0.03,-0.01,-8.62,1.64,-4.44
324.31,-0.04,0.04,0.03,-8.62,1.65,-4.44
324.43,-0.05,0.05,0.04,-8.61,1.65,-4.43
324.55,-0.06,0.05,-0.01,-8.61,1.65,-4.43
324.66,-0.06,0.03,-0.04,-8.61,1.65,-4.44
324.78,-0.06,0.01,-0.03,-8.61,1.65,-4.44
324.89,-0.06,0.01,-0.04,-8.61,1.65,-4.44
325.01,-0.06,0.02,-0.04,-8.6,1.64,-4.44
325.13,-0.05,0.03,-0.02,-8.6,1.64,-4.44
325.24,-0.05,0.03,0.0,-8.61,1.64,-4.44
325.36,-0.05,0.03,0.0,-8.61,1.64,-4.43
325.47,-0.05,0.05,-0.01,-8.62,1.65,-4.43
325.59,-0.05,0.06,-0.0,-8.62,1.64,-4.43
325.7,-0.05,0.05,0.01,-8.62,1.64,-4.43
325.82,-0.05,0.04,0.02,-8.62,1.64,-4.43
325.94,-0.05,0.03,0.05,-8.62,1.64,-4.43
326.05,-0.05,0.03,0.05,-8.61,1.64,-4.43
326.17,-0.06,0.03,0.0,-8.61,1.65,-4.44
326.28,-0.07,0.04,-0.02,-8.61,1.65,-4.44
326.4,-0.07,0.04,-0.04,-8.61,1.65,-4.43
326.52,-0.07,0.05,-0.04,-8.61,1.65,-4.43
326.63,-0.07,0.07,-0.03,-8.61,1.64,-4.43
326.75,-0.07,0.09,-0.04,-8.62,1.64,-4.43
326.86,-0.07,0.08,-0.06,-8.62,1.64,-4.43
326.98,-0.08,0.06,-0.08,-8.62,1.64,-4.44
327.1,-0.07,0.04,-0.09,-8.62,1.64,-4.43
327.21,-0.07,0.04,-0.07,-8.62,1.64,-4.43
327.33,-0.06,0.03,-0.04,-8.61,1.64,-4.43
327.44,-0.06,0.03,-0.03,-8.61,1.64,-4.44
327.56,-0.07,0.04,-0.04,-8.61,1.64,-4.44
327.67,-0.07,0.05,-0.04,-8.61,1.65,-4.43
327.79,-0.07,0.04,-0.04,-8.61,1.65,-4.44
327.91,-0.08,0.04,-0.04,-8.61,1.65,-4.44
328.02,-0.09,0.04,-0.05,-8.61,1.65,-4.44
328.14,-0.09,0.04,-0.06,-8.61,1.64,-4.44
328.26,-0.09,0.04,-0.06,-8.61,1.64,-4.44
328.37,-0.08,0.06,-0.06,-8.61,1.64,-4.43
328.49,-0.07,0.06,-0.05,-8.61,1.64,-4.43
328.6,-0.07,0.05,-0.03,-8.61,1.65,-4.43
328.72,-0.07,0.05,-0.01,-8.61,1.64,-4.43
328.84,-0.07,0.05,-0.0,-8.61,1.64,-4.44
328.95,-0.07,0.05,-0.0,-8.61,1.64,-4.44
329.07,-0.07,0.04,-0.01,-8.62,1.64,-4.43
329.18,-0.08,0.03,-0.01,-8.61,1.64,-4.43
329.3,-0.08,0.03,-0.01,-8.61,1.64,-4.43
329.42,-0.08,0.03,-0.01,-8.61,1.64,-4.43
329.53,-0.07,0.04,-0.01,-8.61,1.64,-4.43
329.65,-0.07,0.04,-0.02,-8.61,1.64,-4.44
329.76,-0.07,0.04,-0.01,-8.61,1.65,-4.44
329.88,-0.08,0.04,-0.01,-8.6,1.65,-4.45
330.0,-0.07,0.04,-0.01,-8.6,1.65,-4.45
330.11,-0.07,0.04,-0.02,-8.61,1.64,-4.45
330.23,-0.07,0.05,-0.03,-8.61,1.64,-4.45
330.34,-0.06,0.04,-0.02,-8.62,1.64,-4.44
330.46,-0.06,0.03,-0.0,-8.62,1.64,-4.44
330.58,-0.06,0.01,0.02,-8.62,1.64,-4.44
330.69,-0.07,0.01,0.02,-8.62,1.64,-4.44
330.81,-0.07,0.01,0.01,-8.62,1.65,-4.44
330.92,-0.07,0.01,0.0,-8.61,1.65,-4.44
331.04,-0.07,0.03,-0.0,-8.61,1.65,-4.43
331.16,-0.07,0.04,-0.01,-8.61,1.64,-4.44
331.27,-0.08,0.05,-0.01,-8.61,1.64,-4.44
331.39,-0.08,0.05,-0.01,-8.61,1.64,-4.44
331.5,-0.07,0.05,-0.01,-8.62,1.64,-4.44
331.62,-0.07,0.05,-0.02,-8.62,1.64,-4.44
331.74,-0.06,0.05,-0.03,-8.61,1.64,-4.44
331.85,-0.06,0.05,-0.03,-8.61,1.64,-4.44
331.97,-0.06,0.05,-0.03,-8.62,1.64,-4.44
332.08,-0.06,0.05,-0.03,-8.62,1.64,-4.44
332.2,-0.06,0.06,-0.02,-8.62,1.64,-4.43
332.32,-0.06,0.06,-0.02,-8.61,1.64,-4.43
332.43,-0.07,0.05,-0.02,-8.61,1.64,-4.42
332.55,-0.07,0.05,-0.02,-8.62,1.64,-4.42
332.66,-0.07,0.05,-0.02,-8.62,1.64,-4.43
332.78,-0.07,0.05,-0.01,-8.62,1.64,-4.43
332.89,-0.06,0.03,0.01,-8.62,1.64,-4.43
333.01,-0.05,0.02,0.02,-8.62,1.64,-4.43
333.13,-0.05,0.02,0.02,-8.61,1.64,-4.43
333.24,-0.06,0.02,-0.0,-8.61,1.64,-4.43
333.36,-0.07,0.02,-0.03,-8.61,1.64,-4.43
333.47,-0.07,0.03,-0.03,-8.62,1.64,-4.44
333.59,-0.06,0.03,-0.03,-8.62,1.64,-4.44
333.71,-0.05,0.04,-0.02,-8.62,1.65,-4.43
333.82,-0.05,0.04,-0.01,-8.62,1.65,-4.43
333.94,-0.06,0.03,-0.0,-8.62,1.65,-4.43
334.05,-0.06,0.03,-0.0,-8.62,1.65,-4.43
334.17,-0.07,0.02,-0.02,-8.62,1.64,-4.44
334.29,-0.08,0.02,-0.03,-8.62,1.64,-4.44
334.4,-0.08,0.02,-0.03,-8.62,1.64,-4.44
334.52,-0.08,0.02,-0.01,-8.62,1.64,-4.44
334.64,-0.07,0.02,0.0,-8.62,1.64,-4.44
334.75,-0.07,0.02,0.0,-8.62,1.64,-4.43
334.87,-0.07,0.02,-0.0,-8.62,1.64,-4.44
334.98,-0.08,0.01,-0.01,-8.61,1.64,-4.44
335.1,-0.09,0.01,-0.02,-8.61,1.64,-4.45
335.21,-0.08,0.02,-0.03,-8.61,1.64,-4.45
335.33,-0.08,0.03,-0.03,-8.61,1.64,-4.44
335.45,-0.09,0.03,-0.02,-8.61,1.64,-4.44
335.56,-0.08,0.04,0.01,-8.61,1.64,-4.45
335.68,-0.08,0.05,0.02,-8.61,1.64,-4.45
335.8,-0.08,0.05,0.0,-8.61,1.64,-4.45
335.91,-0.07,0.05,-0.01,-8.61,1.64,-4.45
336.03,-0.07,0.05,-0.02,-8.61,1.64,-4.44
336.14,-0.06,0.04,-0.01,-8.61,1.64,-4.44
336.26,-0.06,0.04,-0.0,-8.61,1.64,-4.43
336.37,-0.06,0.03,0.01,-8.61,1.64,-4.43
336.49,-0.06,0.02,0.03,-8.61,1.64,-4.43
336.61,-0.05,0.0,0.06,-8.61,1.64,-4.43
336.72,-0.05,0.01,0.07,-8.61,1.64,-4.44
336.84,-0.05,0.02,0.06,-8.61,1.64,-4.44
336.95,-0.06,0.04,0.05,-8.61,1.64,-4.45
337.07,-0.07,0.04,0.04,-8.61,1.64,-4.45
337.19,-0.08,0.04,0.02,-8.61,1.64,-4.45
337.3,-0.08,0.04,-0.0,-8.61,1.64,-4.45
337.42,-0.08,0.04,-0.01,-8.61,1.64,-4.45
337.53,-0.07,0.03,-0.01,-8.61,1.63,-4.44
337.65,-0.06,0.03,0.0,-8.61,1.63,-4.44
337.77,-0.05,0.03,0.0,-8.61,1.64,-4.44
337.88,-0.05,0.03,-0.0,-8.61,1.64,-4.43
338.0,-0.05,0.03,-0.0,-8.61,1.64,-4.43
338.11,-0.06,0.03,0.0,-8.62,1.64,-4.43
338.23,-0.05,0.03,-0.0,-8.62,1.64,-4.44
338.34,-0.05,0.04,-0.01,-8.61,1.64,-4.44
338.46,-0.06,0.04,-0.02,-8.61,1.64,-4.43
338.58,-0.07,0.04,-0.03,-8.61,1.64,-4.43
338.69,-0.07,0.03,-0.04,-8.61,1.64,-4.43
338.81,-0.07,0.03,-0.05,-8.61,1.63,-4.43
338.92,-0.07,0.04,-0.05,-8.61,1.63,-4.43
339.04,-0.07,0.04,-0.03,-8.61,1.63,-4.43
339.16,-0.06,0.05,-0.02,-8.61,1.64,-4.44
339.27,-0.07,0.05,-0.01,-8.61,1.64,-4.44
339.39,-0.07,0.05,-0.01,-8.61,1.64,-4.44
339.51,-0.07,0.05,-0.01,-8.61,1.64,-4.45
339.62,-0.07,0.04,-0.01,-8.62,1.64,-4.45
339.74,-0.07,0.02,-0.01,-8.62,1.63,-4.45
339.85,-0.08,0.01,-0.01,-8.62,1.63,-4.45
339.97,-0.08,0.02,-0.0,-8.62,1.63,-4.45
340.08,-0.08,0.04,-0.01,-8.61,1.63,-4.45
340.2,-0.07,0.05,-0.01,-8.61,1.63,-4.45
340.32,-0.05,0.05,-0.0,-8.61,1.63,-4.45
340.43,-0.05,0.05,-0.0,-8.61,1.63,-4.45
340.55,-0.05,0.05,-0.01,-8.62,1.63,-4.45
340.67,-0.06,0.05,-0.01,-8.62,1.63,-4.45
340.78,-0.06,0.05,-0.0,-8.61,1.63,-4.45
340.9,-0.07,0.04,0.0,-8.61,1.64,-4.45
341.01,-0.07,0.03,0.02,-8.62,1.64,-4.44
341.13,-0.07,0.02,0.05,-8.62,1.63,-4.44
341.24,-0.06,0.02,0.04,-8.62,1.63,-4.44
341.36,-0.06,0.04,0.02,-8.62,1.63,-4.44
341.48,-0.06,0.05,-0.01,-8.61,1.63,-4.44
341.59,-0.06,0.05,-0.03,-8.61,1.63,-4.44
341.71,-0.06,0.05,-0.06,-8.61,1.63,-4.44
341.82,-0.07,0.04,-0.08,-8.61,1.63,-4.44
341.94,-0.08,0.04,-0.13,-8.61,1.64,-4.44
342.05,-0.08,0.05,-0.16,-8.62,1.64,-4.43
342.17,-0.07,0.04,-0.11,-8.62,1.64,-4.43
342.29,-0.06,0.04,-0.06,-8.61,1.65,-4.44
342.4,-0.06,0.03,-0.04,-8.61,1.65,-4.43
342.52,-0.07,0.03,-0.05,-8.61,1.64,-4.43
342.64,-0.08,0.05,-0.05,-8.61,1.64,-4.44
342.75,-0.07,0.08,-0.04,-8.61,1.64,-4.44
342.87,-0.06,0.09,-0.04,-8.61,1.63,-4.45
342.98,-0.06,0.07,-0.05,-8.61,1.63,-4.44
343.1,-0.06,0.07,-0.06,-8.61,1.63,-4.44
343.22,-0.05,0.07,-0.03,-8.61,1.63,-4.44
343.33,-0.04,0.07,0.01,-8.61,1.63,-4.44
343.45,-0.04,0.06,0.04,-8.61,1.63,-4.44
343.56,-0.04,0.06,0.06,-8.61,1.63,-4.44
343.68,-0.05,0.05,0.07,-8.61,1.63,-4.45
343.8,-0.06,0.05,0.05,-8.61,1.63,-4.45
343.91,-0.07,0.04,0.01,-8.62,1.63,-4.44
344.03,-0.07,0.02,0.01,-8.62,1.63,-4.44
344.14,-0.05,0.02,0.04,-8.61,1.63,-4.44
344.26,-0.05,0.03,0.04,-8.61,1.63,-4.44
344.38,-0.06,0.03,0.03,-8.61,1.63,-4.43
344.49,-0.06,0.02,0.01,-8.61,1.63,-4.43
344.61,-0.07,0.02,-0.01,-8.61,1.63,-4.44
344.72,-0.07,0.04,-0.03,-8.61,1.63,-4.44
344.84,-0.08,0.06,-0.06,-8.61,1.63,-4.44
344.95,-0.09,0.07,-0.07,-8.61,1.63,-4.45
345.07,-0.09,0.07,-0.06,-8.61,1.63,-4.45
345.19,-0.1,0.07,-0.07,-8.61,1.63,-4.45
345.3,-0.1,0.05,-0.05,-8.61,1.63,-4.45
345.42,-0.08,0.03,-0.01,-8.61,1.63,-4.45
345.53,-0.07,0.03,-0.0,-8.61,1.63,-4.45
345.65,-0.07,0.03,0.01,-8.61,1.64,-4.45
345.77,-0.08,0.01,0.0,-8.61,1.64,-4.45
345.88,-0.09,0.01,-0.05,-8.61,1.64,-4.44
346.0,-0.09,0.02,-0.07,-8.6,1.64,-4.43
346.11,-0.07,0.02,-0.07,-8.61,1.64,-4.43
346.23,-0.07,0.01,-0.07,-8.61,1.63,-4.44
346.35,-0.07,0.01,-0.06,-8.61,1.63,-4.45
346.46,-0.08,0.05,-0.1,-8.61,1.63,-4.45
346.58,-0.11,0.09,-0.21,-8.61,1.63,-4.45
346.69,-0.12,0.08,-0.2,-8.61,1.63,-4.44
346.81,-0.1,0.05,-0.11,-8.61,1.63,-4.44
346.93,-0.08,0.03,-0.04,-8.61,1.63,-4.44
347.04,-0.06,0.02,-0.0,-8.62,1.63,-4.44
347.16,-0.06,0.03,-0.02,-8.62,1.62,-4.44
