Time[s],RateRoll[°/s],RatePitch[°/s],RateYaw[°/s],AccX[m/s^2],AccY[m/s^2],AccZ[m/s^2]
0.66,-0.0,0.17,-0.02,-8.05,-0.26,-6.07
0.68,0.04,0.02,-0.01,-8.04,-0.27,-6.07
0.71,-0.0,-0.1,0.04,-8.04,-0.26,-6.06
0.73,-0.0,-0.02,-0.01,-8.03,-0.27,-6.05
0.75,-0.0,0.11,0.01,-8.04,-0.26,-6.07
0.78,-0.0,-0.02,0.01,-8.03,-0.24,-6.06
0.8,-0.0,-0.02,-0.01,-8.02,-0.26,-6.06
0.83,0.03,0.05,-0.01,-8.04,-0.26,-6.06
0.85,0.03,0.05,-0.01,-8.04,-0.27,-6.07
0.88,-0.0,-0.05,0.01,-8.05,-0.27,-6.07
0.9,-0.02,0.01,-0.02,-8.04,-0.26,-6.06
0.92,-0.02,0.08,-0.02,-8.04,-0.25,-6.06
0.95,-0.02,0.02,-0.01,-8.03,-0.27,-6.07
0.97,-0.0,-0.05,-0.02,-8.03,-0.26,-6.04
1.0,-0.02,0.04,0.01,-8.03,-0.26,-6.06
1.02,0.03,0.13,-0.01,-8.03,-0.26,-6.06
1.04,-0.0,-0.12,0.02,-8.04,-0.27,-6.07
1.07,0.01,0.01,0.01,-8.03,-0.26,-6.06
1.09,0.03,0.14,-0.02,-8.04,-0.26,-6.07
1.12,-0.0,-0.02,0.02,-8.03,-0.26,-6.07
1.14,-0.03,-0.05,-0.01,-8.03,-0.25,-6.07
1.17,0.01,0.11,-0.01,-8.04,-0.26,-6.07
1.19,0.01,0.05,0.02,-8.03,-0.25,-6.07
1.21,-0.0,-0.12,0.01,-8.03,-0.25,-6.06
1.24,0.01,0.08,0.02,-8.02,-0.26,-6.07
1.26,0.03,0.07,0.06,-8.04,-0.25,-6.06
1.29,-0.0,-0.13,0.02,-8.04,-0.26,-6.07
1.31,-0.02,0.02,-0.01,-8.04,-0.25,-6.06
1.33,-0.0,0.1,0.01,-8.03,-0.26,-6.06
1.36,-0.03,-0.07,-0.01,-8.04,-0.25,-6.07
1.38,-0.0,-0.15,-0.02,-8.03,-0.26,-6.04
1.41,-0.0,0.14,-0.04,-8.04,-0.26,-6.08
1.43,0.01,0.01,-0.01,-8.05,-0.26,-6.08
1.46,-0.0,-0.08,-0.01,-8.04,-0.26,-6.09
1.48,-0.0,-0.02,-0.01,-8.04,-0.26,-6.08
1.5,-0.0,0.11,-0.02,-8.04,-0.27,-6.07
1.53,-0.02,-0.04,0.04,-8.03,-0.25,-6.09
1.55,0.01,-0.1,0.04,-8.04,-0.25,-6.08
1.58,0.01,0.02,-0.01,-8.04,-0.26,-6.09
1.6,0.01,0.11,0.02,-8.05,-0.27,-6.06
1.62,0.03,-0.08,-0.02,-8.04,-0.26,-6.06
1.65,-0.0,-0.04,-0.05,-8.04,-0.26,-6.08
1.67,-0.0,0.04,-0.01,-8.03,-0.26,-6.06
1.7,-0.03,-0.04,0.02,-8.04,-0.26,-6.07
1.72,-0.0,0.05,-0.01,-8.03,-0.27,-6.06
1.75,-0.0,0.08,0.02,-8.04,-0.26,-6.08
1.77,-0.03,-0.05,-0.01,-8.05,-0.25,-6.07
1.79,-0.02,-0.1,0.01,-8.05,-0.25,-6.08
1.82,0.01,0.05,-0.01,-8.05,-0.25,-6.07
1.84,0.04,0.13,-0.01,-8.04,-0.26,-6.07
1.86,0.01,-0.08,0.06,-8.03,-0.26,-6.07
1.89,0.01,-0.27,0.02,-8.04,-0.26,-6.07
1.91,0.01,0.22,-0.02,-8.04,-0.25,-6.09
1.94,0.01,0.13,-0.02,-8.03,-0.26,-6.07
1.96,-0.02,-0.24,-0.01,-8.04,-0.26,-6.04
1.99,0.01,-0.04,-0.01,-8.04,-0.26,-6.06
2.01,-0.03,0.16,-0.01,-8.03,-0.27,-6.06
2.03,-0.02,0.01,0.02,-8.02,-0.26,-6.06
2.06,-0.0,-0.15,0.02,-8.03,-0.26,-6.05
2.08,0.01,0.01,0.04,-8.04,-0.26,-6.07
2.11,-0.0,0.13,0.02,-8.04,-0.25,-6.06
2.13,-0.02,-0.01,0.02,-8.03,-0.25,-6.07
2.16,-0.02,-0.05,0.02,-8.04,-0.26,-6.06
2.18,-0.0,-0.01,-0.02,-8.04,-0.27,-6.05
2.2,-0.0,0.11,-0.01,-8.02,-0.26,-6.06
2.23,-0.0,0.02,0.01,-8.03,-0.26,-6.08
2.25,0.01,-0.1,-0.02,-8.03,-0.27,-6.07
2.28,-0.0,0.02,-0.02,-8.02,-0.26,-6.07
2.3,-0.02,0.04,-0.05,-8.03,-0.23,-6.07
2.32,0.01,0.02,-0.02,-8.03,-0.25,-6.08
2.35,0.01,-0.01,-0.02,-8.04,-0.26,-6.06
2.37,-0.0,0.07,-0.02,-8.03,-0.25,-6.06
2.4,-0.02,0.04,-0.02,-8.04,-0.26,-6.07
2.42,0.01,-0.08,0.02,-8.03,-0.27,-6.09
2.45,0.03,0.08,-0.01,-8.03,-0.27,-6.05
2.47,0.03,0.02,0.01,-8.04,-0.27,-6.08
2.49,-0.0,-0.04,0.01,-8.03,-0.25,-6.08
2.52,-0.03,-0.1,-0.04,-8.05,-0.26,-6.07
2.54,0.03,0.11,-0.02,-8.04,-0.25,-6.04
2.57,0.04,0.13,-0.02,-8.02,-0.27,-6.06
2.59,-0.0,-0.13,-0.01,-8.04,-0.27,-6.08
2.61,-0.02,-0.04,0.01,-8.04,-0.28,-6.05
2.64,-0.0,0.16,0.01,-8.04,-0.25,-6.08
2.66,-0.02,-0.07,-0.01,-8.04,-0.25,-6.08
2.69,0.01,-0.05,-0.01,-8.04,-0.27,-6.06
2.71,-0.02,0.08,-0.04,-8.04,-0.27,-6.07
2.74,-0.0,0.07,-0.04,-8.04,-0.27,-6.07
2.76,0.03,-0.12,-0.01,-8.04,-0.26,-6.08
2.78,0.01,-0.02,0.01,-8.03,-0.27,-6.06
2.81,0.03,0.11,-0.01,-8.04,-0.27,-6.03
2.83,-0.02,-0.02,0.01,-8.03,-0.27,-6.08
2.85,-0.0,-0.18,-0.01,-8.03,-0.25,-6.08
2.88,0.01,0.13,-0.01,-8.03,-0.25,-6.08
2.9,-0.0,0.04,-0.01,-8.03,-0.25,-6.06
2.93,0.01,-0.08,-0.02,-8.04,-0.27,-6.07
2.95,-0.02,0.01,0.01,-8.03,-0.25,-6.06
2.98,-0.0,-0.04,0.02,-8.04,-0.26,-6.08
3.0,0.01,-0.05,0.02,-8.04,-0.26,-6.07
3.02,0.01,0.02,-0.01,-8.05,-0.26,-6.07
3.05,-0.0,0.02,-0.02,-8.04,-0.26,-6.07
3.07,-0.0,-0.04,-0.01,-8.03,-0.26,-6.09
3.1,-0.0,-0.07,0.02,-8.04,-0.26,-6.07
3.12,-0.0,0.04,0.01,-8.03,-0.25,-6.07
3.14,-0.0,0.02,0.01,-8.04,-0.26,-6.07
3.17,-0.0,-0.1,-0.02,-8.04,-0.27,-6.09
3.19,0.01,0.07,-0.01,-8.04,-0.25,-6.07
3.22,-0.02,0.01,-0.01,-8.04,-0.26,-6.06
3.24,-0.0,-0.13,0.01,-8.04,-0.25,-6.08
3.27,-0.0,0.04,-0.01,-8.03,-0.26,-6.07
3.29,-0.03,-0.02,-0.01,-8.03,-0.25,-6.07
3.31,-0.0,-0.02,0.02,-8.04,-0.25,-6.07
3.34,-0.0,0.05,0.01,-8.03,-0.27,-6.07
3.36,0.01,-0.02,0.02,-8.03,-0.27,-6.07
3.39,-0.02,-0.02,0.01,-8.04,-0.25,-6.08
3.41,-0.0,0.17,0.04,-8.03,-0.25,-6.07
3.43,-0.0,-0.07,0.02,-8.04,-0.27,-6.09
3.46,0.01,-0.05,0.01,-8.04,-0.27,-6.05
3.48,0.03,0.1,-0.01,-8.04,-0.26,-6.05
3.51,0.01,-0.07,0.01,-8.04,-0.25,-6.06
3.53,0.03,-0.08,-0.01,-8.03,-0.26,-6.06
3.56,0.01,0.08,-0.01,-8.04,-0.27,-6.05
3.58,0.03,0.02,0.01,-8.05,-0.26,-6.08
3.6,-0.0,-0.08,-0.01,-8.03,-0.25,-6.08
3.63,0.01,0.05,-0.01,-8.04,-0.25,-6.09
3.65,0.03,0.01,0.01,-8.05,-0.25,-6.08
3.68,-0.02,-0.07,-0.01,-8.04,-0.25,-6.07
3.7,-0.0,-0.01,-0.02,-8.04,-0.24,-6.06
3.72,-0.0,0.1,-0.01,-8.04,-0.25,-6.05
3.75,0.01,-0.04,-0.01,-8.04,-0.25,-6.06
3.77,-0.0,0.01,-0.02,-8.04,-0.25,-6.09
3.8,0.01,-0.01,-0.04,-8.05,-0.25,-6.08
3.82,0.06,0.04,-0.01,-8.04,-0.26,-6.07
3.85,0.04,0.05,0.01,-8.02,-0.26,-6.08
3.87,0.03,-0.05,-0.02,-8.03,-0.25,-6.06
3.89,-0.02,-0.01,-0.02,-8.04,-0.27,-6.06
3.92,0.01,0.04,0.01,-8.04,-0.25,-6.06
3.94,-0.02,0.13,-0.04,-8.03,-0.26,-6.06
3.96,-0.02,-0.12,-0.02,-8.03,-0.27,-6.09
3.99,0.01,0.01,-0.04,-8.04,-0.28,-6.05
4.01,-0.02,0.05,0.01,-8.03,-0.26,-6.06
4.04,0.01,0.11,0.01,-8.04,-0.27,-6.08
4.06,-0.0,-0.08,0.01,-8.03,-0.27,-6.07
4.09,-0.02,-0.01,-0.01,-8.04,-0.27,-6.07
4.11,-0.0,0.05,-0.01,-8.04,-0.26,-6.08
4.13,-0.02,0.01,-0.02,-8.03,-0.27,-6.08
4.16,-0.02,0.02,-0.01,-8.02,-0.26,-6.08
4.18,-0.03,-0.01,0.01,-8.03,-0.26,-6.1
4.21,-0.03,0.08,-0.01,-8.03,-0.26,-6.07
4.23,-0.02,-0.02,0.01,-8.03,-0.25,-6.07
4.25,-0.03,-0.05,0.02,-8.03,-0.24,-6.07
4.28,-0.0,0.04,0.01,-8.04,-0.26,-6.07
4.3,-0.03,-0.01,-0.02,-8.03,-0.26,-6.08
4.33,-0.02,-0.05,0.01,-8.03,-0.25,-6.07
4.35,-0.0,-0.02,-0.02,-8.03,-0.26,-6.08
4.38,-0.03,0.08,-0.01,-8.05,-0.26,-6.07
4.4,0.01,-0.02,-0.01,-8.03,-0.25,-6.06
4.42,0.01,-0.01,-0.01,-8.02,-0.25,-6.07
4.45,-0.0,-0.05,-0.02,-8.05,-0.25,-6.09
4.47,-0.0,0.11,-0.01,-8.04,-0.26,-6.09
4.5,0.01,0.07,-0.01,-8.03,-0.25,-6.08
4.52,-0.02,-0.05,0.02,-8.04,-0.26,-6.08
4.55,0.01,0.04,-0.02,-8.03,-0.25,-6.07
4.57,0.01,0.07,-0.02,-8.02,-0.26,-6.07
4.59,0.01,-0.04,-0.01,-8.02,-0.27,-6.08
4.62,-0.02,-0.04,0.02,-8.03,-0.27,-6.06
4.64,-0.0,0.02,-0.01,-8.03,-0.27,-6.08
4.67,-0.0,0.07,-0.02,-8.02,-0.26,-6.09
4.69,-0.02,-0.15,-0.02,-8.04,-0.26,-6.08
4.71,-0.02,-0.01,0.01,-8.05,-0.25,-6.07
4.74,-0.0,0.07,-0.02,-8.03,-0.27,-6.08
4.76,0.01,0.02,-0.01,-8.04,-0.27,-6.08
4.79,-0.02,-0.04,-0.01,-8.03,-0.26,-6.1
4.81,0.01,-0.02,0.02,-8.03,-0.27,-6.08
4.84,-0.0,-0.01,-0.02,-8.03,-0.27,-6.08
4.86,-0.0,0.02,-0.02,-8.02,-0.27,-6.07
4.88,-0.0,-0.02,0.02,-8.02,-0.27,-6.05
4.91,-0.0,-0.05,0.02,-8.03,-0.27,-6.08
4.93,0.01,0.07,-0.01,-8.02,-0.26,-6.07
4.96,-0.0,-0.01,0.01,-8.03,-0.27,-6.09
4.98,0.01,-0.07,0.01,-8.04,-0.25,-6.08
5.0,0.01,0.07,-0.01,-8.04,-0.25,-6.07
5.03,0.01,-0.01,-0.02,-8.04,-0.25,-6.07
5.05,-0.03,-0.02,-0.01,-8.04,-0.26,-6.06
5.08,0.01,0.04,-0.01,-8.04,-0.26,-6.06
5.1,-0.02,-0.13,-0.01,-8.04,-0.27,-6.07
5.13,0.03,0.05,-0.01,-8.02,-0.27,-6.07
5.15,-0.05,0.02,-0.02,-8.04,-0.25,-6.08
5.17,-0.02,-0.01,0.02,-8.03,-0.26,-6.08
5.2,-0.0,0.08,-0.02,-8.04,-0.25,-6.07
5.22,-0.0,-0.08,-0.02,-8.04,-0.26,-6.06
5.25,0.03,-0.02,-0.04,-8.03,-0.26,-6.07
5.27,-0.0,0.02,-0.05,-8.03,-0.27,-6.06
5.3,-0.02,0.08,0.01,-8.04,-0.27,-6.1
5.32,0.01,0.04,-0.01,-8.04,-0.26,-6.1
5.34,-0.0,-0.07,0.01,-8.03,-0.25,-6.08
5.37,-0.0,-0.01,0.02,-8.03,-0.25,-6.07
5.39,-0.02,0.07,-0.05,-8.03,-0.24,-6.08
5.42,-0.02,-0.04,0.01,-8.03,-0.25,-6.07
5.44,0.03,-0.08,0.02,-8.05,-0.26,-6.06
5.46,-0.0,0.08,0.01,-8.04,-0.27,-6.07
5.49,0.01,-0.04,-0.02,-8.04,-0.25,-6.07
5.51,-0.0,-0.01,-0.01,-8.04,-0.25,-6.08
5.54,-0.02,0.02,-0.01,-8.03,-0.25,-6.07
5.56,-0.0,0.01,0.01,-8.04,-0.26,-6.07
5.58,-0.02,-0.04,-0.04,-8.03,-0.27,-6.07
5.61,0.03,0.07,-0.01,-8.04,-0.26,-6.1
5.63,0.01,0.05,-0.01,-8.04,-0.26,-6.07
5.66,0.01,-0.05,-0.02,-8.03,-0.25,-6.07
5.68,-0.0,0.01,-0.02,-8.04,-0.26,-6.08
5.71,-0.0,0.01,-0.01,-8.04,-0.27,-6.09
5.73,-0.02,0.01,-0.01,-8.03,-0.25,-6.07
5.75,-0.05,-0.02,-0.01,-8.05,-0.25,-6.06
5.78,0.03,0.02,0.01,-8.04,-0.25,-6.07
5.8,0.01,-0.02,0.02,-8.04,-0.24,-6.07
5.82,0.03,-0.01,0.01,-8.04,-0.26,-6.07
5.85,0.01,-0.05,0.01,-8.02,-0.26,-6.08
5.87,-0.0,0.05,-0.02,-8.04,-0.27,-6.06
5.9,-0.02,0.01,-0.01,-8.05,-0.25,-6.07
5.92,0.04,-0.05,-0.01,-8.02,-0.25,-6.05
5.95,-0.02,0.01,0.01,-8.04,-0.26,-6.07
5.97,-0.0,0.01,0.04,-8.03,-0.26,-6.07
5.99,-0.0,-0.01,-0.01,-8.03,-0.25,-6.07
6.02,0.01,-0.07,-0.02,-8.04,-0.25,-6.07
6.04,0.01,0.04,-0.01,-8.04,-0.27,-6.08
6.07,-0.0,-0.01,-0.01,-8.04,-0.26,-6.04
6.09,-0.0,-0.04,-0.01,-8.04,-0.26,-6.08
6.11,-0.0,0.04,-0.01,-8.03,-0.27,-6.06
6.14,-0.0,0.02,-0.01,-8.02,-0.27,-6.07
6.16,0.01,-0.07,-0.01,-8.04,-0.27,-6.07
6.19,-0.02,-0.01,0.01,-8.03,-0.25,-6.09
6.21,-0.02,0.02,0.01,-8.02,-0.26,-6.06
6.24,-0.02,-0.02,0.01,-8.04,-0.26,-6.07
6.26,-0.0,0.01,0.02,-8.04,-0.26,-6.06
6.28,-0.0,0.01,-0.01,-8.04,-0.25,-6.08
6.31,0.03,-0.04,-0.04,-8.03,-0.26,-6.09
6.33,-0.0,0.01,-0.01,-8.03,-0.27,-6.08
6.36,-0.0,0.02,0.04,-8.03,-0.26,-6.07
6.38,0.01,0.04,0.02,-8.04,-0.26,-6.08
6.41,-0.0,-0.07,0.01,-8.03,-0.25,-6.07
6.43,-0.03,0.02,0.01,-8.03,-0.25,-6.07
6.45,-0.0,0.07,-0.01,-8.03,-0.26,-6.08
6.48,-0.0,-0.05,0.01,-8.03,-0.27,-6.09
6.5,0.01,-0.1,0.01,-8.04,-0.26,-6.09
6.53,0.01,0.05,-0.02,-8.04,-0.26,-6.07
6.55,-0.0,0.1,-0.01,-8.01,-0.27,-6.08
6.57,-0.0,-0.07,0.02,-8.03,-0.26,-6.08
6.6,-0.0,-0.15,0.01,-8.03,-0.27,-6.06
6.62,-0.0,0.11,-0.01,-8.04,-0.25,-6.05
6.65,-0.0,0.02,-0.02,-8.04,-0.27,-6.09
6.67,0.01,-0.13,-0.01,-8.04,-0.26,-6.07
6.69,-0.02,-0.02,-0.02,-8.04,-0.26,-6.05
6.72,-0.0,0.08,0.01,-8.03,-0.26,-6.07
6.74,-0.0,0.02,0.02,-8.04,-0.27,-6.06
6.77,-0.0,-0.1,-0.01,-8.03,-0.27,-6.08
6.79,-0.0,-0.01,0.01,-8.05,-0.27,-6.08
6.82,-0.03,0.05,-0.01,-8.04,-0.26,-6.09
6.84,-0.0,0.02,-0.02,-8.03,-0.26,-6.07
6.86,-0.0,-0.05,0.01,-8.04,-0.26,-6.08
6.89,-0.02,0.04,-0.01,-8.04,-0.26,-6.07
6.91,-0.0,-0.01,0.02,-8.03,-0.26,-6.07
6.94,-0.02,0.01,0.02,-8.03,-0.26,-6.09
6.96,-0.02,0.02,0.04,-8.03,-0.25,-6.09
6.98,0.01,-0.01,-0.01,-8.04,-0.25,-6.09
7.01,0.01,0.07,-0.01,-8.04,-0.25,-6.08
7.03,0.01,0.02,-0.01,-8.04,-0.25,-6.09
7.06,-0.02,-0.04,-0.01,-8.04,-0.26,-6.08
7.08,0.01,0.04,-0.01,-8.03,-0.26,-6.07
7.11,-0.0,-0.01,0.02,-8.04,-0.26,-6.06
7.13,0.01,-0.02,-0.02,-8.04,-0.26,-6.07
7.15,-0.02,0.01,-0.01,-8.03,-0.26,-6.05
7.18,0.01,-0.05,-0.01,-8.05,-0.26,-6.05
7.2,-0.02,0.02,0.01,-8.02,-0.26,-6.04
7.23,-0.0,0.04,-0.01,-8.03,-0.26,-6.07
7.25,-0.02,-0.05,-0.01,-8.03,-0.27,-6.07
7.27,0.03,0.02,0.02,-8.04,-0.25,-6.08
7.3,-0.0,0.11,0.02,-8.03,-0.27,-6.05
7.32,-0.0,0.02,0.01,-8.02,-0.26,-6.07
7.35,-0.02,-0.12,0.01,-8.05,-0.27,-6.08
7.37,-0.0,-0.02,0.04,-8.04,-0.25,-6.07
7.4,-0.0,0.14,0.01,-8.03,-0.25,-6.07
7.42,-0.02,-0.04,0.01,-8.05,-0.25,-6.08
7.44,-0.02,-0.16,-0.01,-8.04,-0.26,-6.08
7.47,-0.02,0.14,-0.01,-8.05,-0.26,-6.08
7.49,-0.0,0.07,0.01,-8.04,-0.24,-6.08
7.52,0.01,-0.22,-0.01,-8.04,-0.26,-6.07
7.54,0.01,0.04,-0.01,-8.04,-0.26,-6.06
7.56,0.03,0.19,-0.01,-8.03,-0.25,-6.07
7.59,-0.02,-0.07,0.04,-8.04,-0.26,-6.07
7.61,-0.02,-0.13,-0.02,-8.02,-0.25,-6.08
7.64,0.01,0.19,-0.04,-8.03,-0.26,-6.08
7.66,-0.0,-0.01,0.01,-8.05,-0.26,-6.07
7.69,-0.02,-0.12,-0.02,-8.04,-0.27,-6.07
7.71,-0.03,-0.04,-0.04,-8.04,-0.28,-6.06
7.73,0.01,0.1,-0.05,-8.02,-0.25,-6.08
7.76,0.03,-0.01,-0.02,-8.02,-0.26,-6.08
7.78,-0.0,-0.01,-0.01,-8.01,-0.25,-6.09
7.8,0.01,0.02,-0.01,-8.03,-0.26,-6.07
7.83,-0.02,0.08,-0.02,-8.03,-0.26,-6.08
7.85,-0.0,0.01,-0.01,-8.04,-0.26,-6.08
7.88,-0.02,-0.12,0.04,-8.04,-0.26,-6.07
7.9,-0.03,0.05,0.02,-8.04,-0.24,-6.07
7.93,-0.0,0.04,0.02,-8.05,-0.26,-6.08
7.95,-0.03,-0.07,0.02,-8.04,-0.24,-6.08
7.97,-0.02,0.01,-0.01,-8.04,-0.25,-6.06
8.0,0.01,0.07,0.02,-8.04,-0.27,-6.06
8.02,-0.0,-0.07,-0.01,-8.05,-0.26,-6.08
8.05,-0.02,-0.08,-0.01,-8.03,-0.25,-6.07
8.07,-0.02,0.1,0.02,-8.04,-0.27,-6.07
8.1,0.01,0.02,-0.02,-8.03,-0.26,-6.07
8.12,-0.02,-0.1,0.01,-8.03,-0.26,-6.03
8.14,-0.0,-0.02,0.01,-8.03,-0.25,-6.07
8.17,-0.0,0.04,-0.01,-8.03,-0.26,-6.07
8.19,-0.0,-0.02,0.02,-8.03,-0.27,-6.08
8.22,0.01,-0.02,0.02,-8.04,-0.26,-6.06
8.24,0.01,0.02,0.01,-8.04,-0.26,-6.05
8.26,0.01,0.05,0.02,-8.03,-0.26,-6.05
8.29,-0.0,-0.08,0.01,-8.04,-0.26,-6.07
8.31,0.01,0.04,-0.01,-8.03,-0.26,-6.05
8.34,0.01,0.08,-0.04,-8.02,-0.25,-6.07
8.36,0.03,-0.04,-0.02,-8.04,-0.26,-6.07
8.38,-0.02,0.05,0.02,-8.03,-0.26,-6.06
8.41,0.01,0.11,0.01,-8.05,-0.26,-6.06
8.43,0.01,-0.01,-0.01,-8.04,-0.26,-6.06
8.46,-0.0,-0.01,-0.01,-8.03,-0.27,-6.07
8.48,0.01,0.02,0.01,-8.03,-0.26,-6.07
8.51,-0.02,0.05,-0.02,-8.03,-0.27,-6.06
8.53,-0.02,-0.08,0.01,-8.03,-0.25,-6.07
8.55,-0.0,-0.02,0.02,-8.03,-0.27,-6.08
8.58,-0.02,0.08,0.02,-8.03,-0.26,-6.08
8.6,-0.02,0.02,0.02,-8.03,-0.27,-6.07
8.63,-0.03,-0.05,0.01,-8.04,-0.26,-6.06
8.65,-0.02,0.02,-0.04,-8.04,-0.26,-6.04
8.67,-0.02,0.07,0.01,-8.01,-0.25,-6.07
8.7,-0.0,-0.04,0.01,-8.05,-0.24,-6.08
8.72,-0.0,0.01,-0.01,-8.04,-0.27,-6.08
8.75,0.01,0.07,-0.02,-8.04,-0.27,-6.07
8.77,0.01,0.02,0.02,-8.03,-0.26,-6.07
8.79,-0.0,-0.01,0.02,-8.03,-0.27,-6.08
8.82,0.01,0.04,0.02,-8.02,-0.24,-6.06
8.84,-0.02,-0.04,0.02,-8.03,-0.25,-6.07
8.87,0.01,-0.01,0.04,-8.04,-0.25,-6.09
8.89,0.01,0.02,0.01,-8.04,-0.25,-6.09
8.91,0.01,-0.01,0.02,-8.02,-0.25,-6.08
8.94,0.03,-0.01,-0.01,-8.05,-0.24,-6.07
8.96,0.03,-0.04,0.01,-8.05,-0.25,-6.07
8.99,0.03,-0.01,-0.01,-8.04,-0.25,-6.09
9.01,0.01,0.04,-0.02,-8.04,-0.26,-6.08
9.03,-0.0,-0.01,0.01,-8.03,-0.26,-6.08
9.06,-0.02,-0.07,-0.02,-8.03,-0.26,-6.07
9.08,0.01,0.02,-0.04,-8.03,-0.27,-6.11
9.11,-0.0,0.07,-0.02,-8.03,-0.25,-6.06
9.13,-0.03,-0.15,0.01,-8.03,-0.26,-6.06
9.15,-0.02,-0.04,-0.01,-8.03,-0.25,-6.05
9.18,-0.02,0.08,0.01,-8.04,-0.25,-6.05
9.2,-0.0,0.02,0.01,-8.03,-0.25,-6.06
9.23,-0.02,-0.08,0.04,-8.02,-0.25,-6.05
9.25,-0.02,0.04,-0.01,-8.03,-0.26,-6.06
9.28,0.01,0.07,-0.01,-8.03,-0.26,-6.07
9.3,-0.0,0.02,0.01,-8.04,-0.26,-6.07
9.32,-0.0,0.01,-0.02,-8.04,-0.27,-6.05
9.35,-0.02,0.05,-0.02,-8.04,-0.26,-6.08
9.37,-0.02,0.04,-0.02,-8.04,-0.25,-6.08
9.4,0.03,-0.01,-0.01,-8.03,-0.26,-6.07
9.42,0.01,-0.01,-0.01,-8.03,-0.26,-6.05
9.44,-0.0,0.08,0.01,-8.04,-0.25,-6.05
9.47,0.03,-0.1,0.02,-8.03,-0.26,-6.05
9.49,0.01,-0.07,0.02,-8.04,-0.26,-6.06
9.52,-0.0,0.1,-0.01,-8.03,-0.25,-6.07
9.54,-0.0,0.04,-0.01,-8.04,-0.26,-6.09
9.57,-0.03,-0.07,0.02,-8.03,-0.27,-6.07
9.59,-0.03,-0.02,0.04,-8.04,-0.27,-6.04
9.61,0.01,0.05,0.02,-8.03,-0.26,-6.07
9.64,0.01,-0.07,-0.01,-8.03,-0.25,-6.05
9.66,0.01,0.05,0.02,-8.03,-0.27,-6.06
9.69,0.01,0.01,0.04,-8.04,-0.25,-6.06
9.71,0.01,0.01,0.02,-8.04,-0.25,-6.07
9.73,0.01,-0.01,0.02,-8.04,-0.25,-6.08
9.76,-0.03,0.07,0.02,-8.02,-0.26,-6.07
9.78,-0.05,-0.02,0.04,-8.03,-0.26,-6.06
9.81,-0.02,-0.04,0.01,-8.03,-0.26,-6.05
9.83,-0.0,-0.01,-0.01,-8.04,-0.26,-6.09
9.85,0.01,0.01,0.02,-8.03,-0.24,-6.08
9.88,0.03,0.08,0.02,-8.03,-0.25,-6.07
9.9,0.01,-0.04,0.01,-8.04,-0.26,-6.07
9.93,0.01,-0.07,0.01,-8.03,-0.26,-6.06
9.95,-0.0,0.07,-0.01,-8.03,-0.27,-6.05
9.97,-0.02,0.04,-0.01,-8.03,-0.27,-6.07
10.0,-0.02,-0.13,0.01,-8.03,-0.25,-6.06
10.02,0.01,0.02,0.01,-8.04,-0.25,-6.05
10.05,-0.0,0.04,0.01,-8.04,-0.25,-6.05
10.07,0.01,-0.04,0.01,-8.05,-0.26,-6.08
10.1,0.03,-0.01,0.01,-8.03,-0.26,-6.06
10.12,-0.02,0.02,-0.01,-8.05,-0.25,-6.04
10.14,0.01,0.05,-0.01,-8.04,-0.27,-6.09
10.17,0.03,-0.01,-0.01,-8.03,-0.25,-6.07
10.19,-0.02,0.01,-0.02,-8.04,-0.26,-6.08
10.22,-0.0,0.04,0.01,-8.04,-0.26,-6.07
10.24,-0.02,0.01,0.01,-8.03,-0.26,-6.06
10.27,-0.0,0.01,0.04,-8.03,-0.26,-6.06
10.29,-0.02,0.04,0.02,-8.04,-0.26,-6.06
10.31,-0.0,-0.05,0.02,-8.05,-0.25,-6.09
10.34,-0.02,0.07,-0.01,-8.04,-0.27,-6.06
10.36,-0.03,0.02,-0.01,-8.03,-0.27,-6.07
10.39,-0.02,-0.02,0.02,-8.03,-0.26,-6.08
10.41,0.03,0.04,-0.01,-8.05,-0.27,-6.07
10.44,-0.0,0.04,0.01,-8.03,-0.27,-6.08
10.46,0.03,-0.02,0.01,-8.03,-0.27,-6.06
10.48,-0.03,0.05,-0.01,-8.02,-0.27,-6.08
10.51,-0.05,0.01,0.02,-8.03,-0.25,-6.09
10.53,0.01,0.01,0.02,-8.04,-0.27,-6.07
10.56,0.01,0.04,0.02,-8.03,-0.27,-6.06
10.58,-0.02,-0.02,0.01,-8.03,-0.26,-6.08
10.6,-0.0,0.01,0.01,-8.02,-0.26,-6.06
10.63,-0.0,0.01,0.04,-8.04,-0.27,-6.05
10.65,-0.02,0.01,0.02,-8.03,-0.26,-6.07
10.68,0.01,0.05,-0.02,-8.03,-0.26,-6.07
10.7,-0.0,-0.02,0.01,-8.02,-0.26,-6.08
10.73,-0.03,-0.02,0.01,-8.04,-0.25,-6.07
10.75,-0.03,0.02,-0.02,-8.02,-0.24,-6.06
10.77,-0.02,0.07,-0.01,-8.02,-0.26,-6.05
10.8,-0.0,-0.05,-0.02,-8.03,-0.26,-6.06
10.82,0.03,-0.01,-0.02,-8.03,-0.27,-6.06
10.85,0.01,0.11,-0.04,-8.03,-0.25,-6.08
10.87,-0.02,-0.04,-0.02,-8.04,-0.26,-6.06
10.9,0.03,-0.08,-0.04,-8.04,-0.26,-6.06
10.92,-0.0,0.24,-0.01,-8.03,-0.27,-6.09
10.94,-0.0,0.01,0.01,-8.04,-0.27,-6.11
10.97,-0.03,-0.34,-0.01,-8.04,-0.26,-6.07
10.99,-0.03,0.25,0.02,-8.03,-0.26,-6.07
11.02,-0.02,0.13,-0.01,-8.03,-0.25,-6.08
11.04,-0.02,-0.21,0.01,-8.02,-0.26,-6.08
11.07,-0.0,-0.01,0.02,-8.03,-0.26,-6.07
11.09,-0.02,0.24,-0.01,-8.04,-0.24,-6.07
11.11,-0.02,-0.08,0.02,-8.04,-0.25,-6.06
11.14,-0.0,-0.19,-0.02,-8.05,-0.27,-6.06
11.16,-0.02,0.21,-0.02,-8.04,-0.28,-6.06
11.19,-0.0,0.02,0.01,-8.04,-0.26,-6.06
11.21,-0.0,-0.1,0.02,-8.04,-0.25,-6.07
11.24,-0.0,-0.1,0.04,-8.02,-0.26,-6.05
11.26,0.01,0.05,0.02,-8.03,-0.26,-6.08
11.28,0.01,0.08,0.01,-8.03,-0.25,-6.07
11.31,-0.02,0.02,-0.02,-8.03,-0.24,-6.07
11.33,-0.0,-0.1,0.01,-8.04,-0.26,-6.04
11.36,-0.0,0.1,0.01,-8.03,-0.28,-6.06
11.38,-0.02,0.07,0.01,-8.04,-0.26,-6.07
11.41,-0.02,-0.21,0.01,-8.05,-0.26,-6.06
11.43,-0.03,0.16,0.02,-8.03,-0.26,-6.04
11.46,-0.03,0.1,-0.02,-8.02,-0.25,-6.08
11.48,-0.02,-0.15,0.01,-8.04,-0.26,-6.06
11.5,-0.0,-0.01,0.01,-8.04,-0.26,-6.07
11.53,0.03,0.11,-0.02,-8.04,-0.26,-6.09
11.55,0.01,-0.05,-0.01,-8.04,-0.26,-6.07
11.58,0.01,-0.08,0.01,-8.03,-0.26,-6.07
11.6,0.01,0.05,-0.01,-8.04,-0.25,-6.08
11.63,-0.03,0.01,-0.02,-8.05,-0.24,-6.07
11.65,-0.05,-0.05,-0.01,-8.04,-0.26,-6.07
11.67,-0.03,0.05,0.01,-8.04,-0.26,-6.07
11.7,-0.02,0.1,-0.01,-8.03,-0.25,-6.07
11.72,-0.0,-0.15,0.02,-8.03,-0.26,-6.05
11.75,-0.0,-0.08,-0.01,-8.05,-0.26,-6.06
11.77,-0.02,0.16,-0.02,-8.05,-0.26,-6.08
11.8,-0.0,-0.1,0.01,-8.04,-0.26,-6.07
11.82,0.03,-0.15,0.01,-8.03,-0.26,-6.06
11.84,0.01,0.08,0.01,-8.03,-0.25,-6.05
11.87,0.01,0.08,-0.02,-8.04,-0.25,-6.08
11.89,-0.0,-0.12,-0.01,-8.03,-0.26,-6.06
11.92,-0.03,0.07,-0.01,-8.04,-0.26,-6.05
11.94,-0.02,0.13,0.01,-8.04,-0.25,-6.07
11.97,-0.0,-0.08,-0.01,-8.04,-0.25,-6.08
11.99,-0.02,-0.07,-0.02,-8.04,-0.27,-6.06
12.01,-0.0,0.11,-0.02,-8.04,-0.27,-6.06
12.04,-0.02,-0.01,0.04,-8.05,-0.26,-6.07
12.06,-0.05,-0.15,0.02,-8.04,-0.27,-6.08
12.09,0.01,0.1,0.01,-8.04,-0.26,-6.08
12.11,-0.02,0.1,0.02,-8.03,-0.26,-6.07
12.14,-0.02,-0.12,0.02,-8.04,-0.26,-6.06
12.16,-0.02,0.02,0.02,-8.04,-0.26,-6.05
12.18,0.03,0.14,-0.01,-8.04,-0.25,-6.08
12.21,-0.0,-0.08,0.02,-8.02,-0.26,-6.08
12.23,-0.03,-0.08,-0.01,-8.03,-0.27,-6.08
12.26,0.01,0.04,-0.02,-8.05,-0.26,-6.06
12.28,-0.0,0.02,0.01,-8.02,-0.26,-6.06
12.31,-0.03,-0.04,0.01,-8.03,-0.26,-6.08
12.33,-0.03,-0.02,-0.01,-8.04,-0.25,-6.08
12.35,-0.02,0.02,0.01,-8.03,-0.27,-6.07
12.38,-0.0,0.08,0.01,-8.02,-0.26,-6.07
12.4,-0.0,-0.04,0.01,-8.03,-0.26,-6.09
12.43,0.01,-0.02,0.04,-8.02,-0.25,-6.09
12.45,-0.03,0.05,0.01,-8.03,-0.26,-6.07
12.48,-0.03,0.02,0.02,-8.04,-0.26,-6.07
12.5,-0.0,0.07,-0.04,-8.03,-0.25,-6.08
12.52,-0.02,-0.05,0.01,-8.03,-0.25,-6.07
12.55,-0.02,-0.07,0.02,-8.04,-0.25,-6.05
12.57,-0.02,-0.05,-0.02,-8.04,-0.25,-6.07
12.6,0.01,0.04,0.01,-8.04,-0.25,-6.08
12.62,0.01,-0.02,-0.02,-8.04,-0.27,-6.07
12.65,0.01,-0.12,-0.01,-8.03,-0.26,-6.07
12.67,0.01,0.11,0.01,-8.02,-0.26,-6.09
12.69,-0.02,0.02,-0.01,-8.03,-0.25,-6.1
12.72,-0.02,-0.08,0.04,-8.04,-0.25,-6.1
12.74,0.01,0.04,0.01,-8.04,-0.26,-6.08
12.77,-0.02,0.04,0.01,-8.03,-0.26,-6.06
12.79,-0.0,-0.01,-0.01,-8.03,-0.27,-6.06
12.82,-0.0,0.01,-0.01,-8.05,-0.26,-6.07
12.84,-0.03,-0.01,0.04,-8.04,-0.26,-6.06
12.86,-0.0,0.02,0.01,-8.04,-0.27,-6.07
12.89,0.01,-0.02,-0.01,-8.03,-0.27,-6.06
12.91,-0.02,0.02,-0.02,-8.04,-0.27,-6.08
12.94,-0.0,0.01,-0.02,-8.05,-0.26,-6.07
12.96,-0.03,-0.02,-0.04,-8.03,-0.25,-6.09
12.99,-0.03,0.02,-0.04,-8.04,-0.26,-6.08
13.01,-0.03,-0.02,0.01,-8.02,-0.26,-6.08
13.03,-0.0,-0.08,-0.01,-8.03,-0.28,-6.06
13.06,-0.02,0.05,-0.02,-8.03,-0.27,-6.08
13.08,0.01,0.04,0.02,-8.03,-0.26,-6.07
13.11,0.01,-0.07,0.01,-8.04,-0.26,-6.07
13.13,-0.0,-0.04,0.02,-8.04,-0.25,-6.06
13.16,-0.0,0.04,0.04,-8.04,-0.25,-6.08
13.18,-0.0,0.05,0.01,-8.05,-0.26,-6.06
13.21,-0.0,-0.04,-0.01,-8.03,-0.27,-6.06
13.23,0.01,0.07,-0.02,-8.04,-0.27,-6.07
13.25,-0.0,0.05,0.02,-8.02,-0.27,-6.06
13.28,-0.0,-0.08,0.02,-8.03,-0.27,-6.06
13.3,-0.0,-0.01,0.02,-8.03,-0.26,-6.08
13.33,-0.0,0.13,0.01,-8.04,-0.25,-6.08
13.35,-0.02,-0.05,0.02,-8.04,-0.25,-6.05
13.38,-0.02,-0.1,0.01,-8.03,-0.26,-6.07
13.4,-0.0,0.08,-0.01,-8.04,-0.26,-6.07
13.42,-0.02,-0.01,-0.01,-8.03,-0.26,-6.06
13.45,-0.02,-0.1,0.02,-8.03,-0.26,-6.08
13.47,-0.02,-0.01,0.01,-8.03,-0.26,-6.08
13.5,-0.02,0.17,-0.01,-8.03,-0.26,-6.07
13.52,-0.05,-0.05,0.02,-8.02,-0.25,-6.07
13.55,-0.0,-0.07,0.02,-8.02,-0.26,-6.05
13.57,-0.02,0.04,0.02,-8.04,-0.27,-6.07
13.59,-0.0,0.02,0.01,-8.05,-0.26,-6.08
13.62,-0.02,-0.02,-0.01,-8.05,-0.27,-6.07
13.64,-0.0,-0.02,0.02,-8.04,-0.28,-6.09
13.67,-0.0,0.01,0.04,-8.03,-0.27,-6.08
13.69,-0.02,-0.01,0.01,-8.04,-0.25,-6.08
13.72,-0.02,-0.05,-0.01,-8.04,-0.25,-6.06
13.74,-0.0,0.02,0.01,-8.03,-0.26,-6.07
13.76,-0.0,0.11,0.01,-8.04,-0.26,-6.07
13.79,0.01,-0.04,0.02,-8.03,-0.25,-6.07
13.81,0.01,-0.1,0.01,-8.03,-0.26,-6.06
13.84,0.03,0.08,-0.02,-8.05,-0.27,-6.06
13.86,0.01,0.05,-0.01,-8.03,-0.26,-6.09
13.89,0.01,-0.07,-0.01,-8.03,-0.26,-6.06
13.91,-0.02,0.07,-0.02,-8.03,-0.26,-6.06
13.93,-0.05,0.05,-0.01,-8.03,-0.26,-6.06
13.96,-0.02,-0.13,0.02,-8.04,-0.27,-6.07
13.98,0.01,0.02,0.04,-8.05,-0.27,-6.05
14.01,-0.0,0.16,0.02,-8.04,-0.26,-6.05
14.03,0.03,-0.04,0.01,-8.04,-0.25,-6.07
14.06,-0.0,-0.12,0.01,-8.04,-0.26,-6.09
14.08,-0.05,0.13,0.02,-8.04,-0.27,-6.09
14.1,0.01,0.1,0.02,-8.03,-0.25,-6.07
14.13,-0.02,-0.15,-0.01,-8.04,-0.26,-6.07
14.15,-0.05,-0.01,-0.02,-8.03,-0.27,-6.07
14.18,-0.0,0.11,-0.04,-8.02,-0.25,-6.08
14.2,-0.02,-0.04,-0.01,-8.04,-0.26,-6.08
14.23,0.03,-0.12,0.02,-8.04,-0.25,-6.06
14.25,0.03,0.1,-0.04,-8.04,-0.26,-6.04
14.27,0.01,0.19,-0.01,-8.03,-0.26,-6.07
14.3,-0.0,-0.05,-0.02,-8.04,-0.28,-6.07
14.32,-0.0,-0.1,0.01,-8.03,-0.26,-6.06
14.35,-0.02,0.1,-0.01,-8.04,-0.26,-6.07
14.37,-0.03,0.13,-0.01,-8.03,-0.27,-6.07
14.4,-0.02,-0.1,-0.04,-8.04,-0.26,-6.09
14.42,-0.03,-0.05,0.02,-8.04,-0.27,-6.07
14.44,-0.03,0.08,0.02,-8.04,-0.26,-6.08
14.47,-0.02,0.04,0.02,-8.03,-0.25,-6.07
14.49,-0.0,-0.18,0.01,-8.04,-0.25,-6.06
14.52,-0.02,0.01,0.01,-8.04,-0.26,-6.08
14.54,-0.03,0.14,-0.01,-8.03,-0.24,-6.07
14.57,-0.03,-0.02,0.02,-8.02,-0.25,-6.06
14.59,-0.02,-0.08,0.06,-8.05,-0.26,-6.07
14.61,-0.0,0.07,0.02,-8.04,-0.26,-6.09
14.64,-0.02,0.05,-0.01,-8.03,-0.24,-6.08
14.66,-0.02,-0.12,0.02,-8.05,-0.25,-6.06
14.69,-0.0,-0.01,-0.02,-8.03,-0.26,-6.08
14.71,-0.05,0.16,0.02,-8.01,-0.26,-6.08
14.74,-0.0,-0.02,-0.01,-8.05,-0.26,-6.09
14.76,-0.0,-0.07,-0.01,-8.03,-0.28,-6.08
14.78,-0.02,0.07,-0.02,-8.04,-0.26,-6.07
14.81,-0.0,0.04,-0.02,-8.03,-0.27,-6.08
14.83,-0.02,-0.04,-0.01,-8.04,-0.25,-6.07
14.86,-0.02,0.01,-0.01,-8.03,-0.25,-6.08
14.88,-0.02,0.08,0.02,-8.03,-0.27,-6.08
14.91,-0.0,-0.01,0.02,-8.04,-0.28,-6.08
14.93,-0.0,-0.1,0.02,-8.03,-0.26,-6.06
14.96,-0.0,0.11,-0.01,-8.04,-0.26,-6.07
14.98,-0.02,0.08,-0.02,-8.03,-0.26,-6.08
15.0,-0.0,-0.15,-0.02,-8.03,-0.27,-6.09
15.03,-0.02,-0.02,-0.04,-8.04,-0.27,-6.06
15.05,-0.0,0.05,-0.04,-8.04,-0.25,-6.06
15.08,-0.0,0.05,-0.02,-8.03,-0.26,-6.06
15.1,-0.0,-0.13,-0.01,-8.03,-0.26,-6.08
15.13,-0.0,0.01,0.01,-8.03,-0.26,-6.08
15.15,-0.02,0.1,-0.01,-8.04,-0.27,-6.08
15.18,-0.0,-0.01,-0.02,-8.04,-0.25,-6.08
15.2,0.03,-0.05,-0.01,-8.05,-0.25,-6.07
15.22,0.01,0.04,0.01,-8.04,-0.27,-6.08
15.25,-0.0,0.07,-0.02,-8.03,-0.26,-6.08
15.27,-0.0,0.01,-0.01,-8.04,-0.26,-6.07
15.3,-0.0,-0.07,0.01,-8.03,-0.27,-6.06
15.32,0.01,0.02,-0.01,-8.04,-0.27,-6.05
15.35,-0.02,0.07,-0.01,-8.04,-0.26,-6.07
15.37,-0.0,-0.13,0.02,-8.03,-0.27,-6.08
15.39,-0.0,-0.04,0.01,-8.02,-0.26,-6.08
15.42,-0.02,0.07,0.01,-8.03,-0.27,-6.07
15.44,-0.0,-0.02,-0.01,-8.04,-0.26,-6.07
15.47,0.01,-0.01,0.01,-8.04,-0.26,-6.05
15.49,0.03,0.02,0.02,-8.05,-0.27,-6.06
15.52,-0.02,0.01,0.01,-8.04,-0.26,-6.07
15.54,-0.02,0.04,-0.02,-8.03,-0.28,-6.06
15.56,-0.06,0.01,-0.01,-8.02,-0.26,-6.09
15.59,-0.05,-0.05,0.01,-8.03,-0.26,-6.07
15.61,-0.03,0.02,0.02,-8.03,-0.26,-6.08
15.64,-0.02,0.1,-0.01,-8.04,-0.28,-6.08
15.66,-0.05,-0.07,0.04,-8.04,-0.25,-6.07
15.69,-0.02,-0.04,0.02,-8.04,-0.25,-6.09
15.71,-0.02,0.1,0.02,-8.04,-0.27,-6.08
15.73,0.01,-0.02,0.01,-8.02,-0.26,-6.08
15.76,0.01,-0.05,-0.01,-8.02,-0.26,-6.07
15.78,0.03,0.05,0.01,-8.03,-0.26,-6.05
15.81,-0.0,0.01,0.02,-8.03,-0.26,-6.05
15.83,-0.02,-0.15,-0.02,-8.05,-0.25,-6.06
15.85,-0.02,0.04,-0.02,-8.04,-0.25,-6.05
15.88,-0.02,0.13,-0.01,-8.03,-0.26,-6.07
15.9,0.01,-0.1,0.04,-8.04,-0.25,-6.09
15.93,-0.02,-0.08,0.02,-8.04,-0.26,-6.07
15.95,-0.02,0.13,0.02,-8.03,-0.26,-6.06
15.98,-0.0,0.1,-0.02,-8.03,-0.26,-6.07
16.0,-0.03,-0.18,0.01,-8.03,-0.26,-6.07
16.03,-0.02,-0.05,-0.01,-8.02,-0.27,-6.08
16.05,-0.03,0.14,0.01,-8.03,-0.27,-6.08
16.07,-0.02,-0.04,0.01,-8.03,-0.26,-6.09
16.1,0.01,-0.15,-0.01,-8.02,-0.25,-6.08
16.12,-0.03,-0.02,0.01,-8.04,-0.25,-6.07
16.15,-0.02,0.08,0.01,-8.04,-0.25,-6.06
16.17,0.01,-0.05,-0.01,-8.04,-0.25,-6.1
16.2,-0.02,-0.05,-0.02,-8.04,-0.26,-6.08
16.22,-0.03,0.02,-0.04,-8.03,-0.25,-6.08
16.25,-0.03,0.04,-0.01,-8.03,-0.26,-6.07
16.27,-0.03,0.01,0.01,-8.05,-0.26,-6.08
16.29,-0.02,-0.07,0.01,-8.03,-0.26,-6.08
16.32,-0.0,0.08,-0.02,-8.04,-0.27,-6.06
16.34,-0.02,0.01,0.01,-8.04,-0.26,-6.08
16.37,-0.03,-0.16,0.01,-8.03,-0.26,-6.07
16.39,-0.0,0.07,0.01,-8.03,-0.27,-6.08
16.42,-0.02,0.07,0.02,-8.04,-0.27,-6.09
16.44,-0.02,-0.05,-0.01,-8.03,-0.26,-6.08
16.46,0.01,-0.05,-0.02,-8.03,-0.26,-6.07
16.49,0.01,0.05,0.01,-8.04,-0.26,-6.06
16.51,-0.0,0.04,-0.01,-8.03,-0.27,-6.06
16.54,-0.03,-0.02,-0.02,-8.05,-0.26,-6.08
16.56,-0.0,-0.02,0.02,-8.04,-0.25,-6.08
16.58,0.03,-0.02,0.04,-8.04,-0.25,-6.08
16.61,-0.0,-0.01,0.02,-8.03,-0.27,-6.06
16.63,0.03,-0.01,0.01,-8.03,-0.26,-6.08
16.66,0.01,-0.01,0.02,-8.04,-0.26,-6.1
16.68,-0.02,-0.07,0.02,-8.04,-0.27,-6.06
16.71,0.01,0.01,0.02,-8.04,-0.28,-6.05
16.73,-0.03,0.07,-0.01,-8.04,-0.27,-6.05
16.75,0.01,-0.02,0.02,-8.03,-0.27,-6.06
16.78,-0.0,-0.02,0.02,-8.04,-0.26,-6.06
16.8,-0.0,0.05,-0.02,-8.03,-0.27,-6.04
16.83,0.01,0.01,-0.07,-8.03,-0.27,-6.06
16.85,-0.03,-0.01,-0.02,-8.03,-0.26,-6.06
16.88,-0.02,-0.01,0.01,-8.03,-0.26,-6.08
16.9,-0.02,0.01,-0.02,-8.03,-0.26,-6.05
16.92,-0.0,0.02,-0.01,-8.04,-0.25,-6.08
16.95,-0.0,-0.01,0.01,-8.04,-0.26,-6.08
16.97,-0.0,0.01,0.02,-8.05,-0.28,-6.08
17.0,0.03,0.05,-0.01,-8.04,-0.26,-6.08
17.02,0.03,-0.02,-0.02,-8.04,-0.25,-6.08
17.05,-0.0,0.01,-0.02,-8.03,-0.26,-6.07
17.07,-0.0,0.05,0.02,-8.03,-0.26,-6.05
17.09,-0.02,0.04,0.04,-8.04,-0.26,-6.07
17.12,-0.02,-0.07,-0.01,-8.03,-0.26,-6.07
17.14,-0.0,0.02,0.01,-8.04,-0.26,-6.08
17.17,-0.0,0.1,-0.01,-8.04,-0.25,-6.06
17.19,-0.0,-0.01,0.02,-8.04,-0.26,-6.06
17.22,-0.02,0.01,-0.02,-8.05,-0.26,-6.07
17.24,-0.0,0.05,0.01,-8.04,-0.25,-6.05
17.26,-0.0,0.04,-0.01,-8.04,-0.26,-6.05
17.29,-0.0,-0.08,0.02,-8.04,-0.26,-6.06
17.31,-0.03,0.02,0.04,-8.04,-0.27,-6.08
17.34,-0.02,0.13,0.01,-8.03,-0.27,-6.09
17.36,-0.0,-0.05,-0.01,-8.04,-0.26,-6.08
17.39,-0.03,-0.02,0.02,-8.04,-0.26,-6.07
17.41,0.01,0.01,0.06,-8.04,-0.27,-6.06
17.43,-0.02,0.07,0.01,-8.03,-0.27,-6.08
17.46,-0.0,0.02,0.01,-8.03,-0.27,-6.06
17.48,-0.02,-0.04,-0.01,-8.04,-0.26,-6.08
17.51,-0.0,-0.01,-0.01,-8.04,-0.26,-6.07
17.53,0.01,0.07,0.01,-8.05,-0.26,-6.05
17.56,-0.0,-0.01,-0.01,-8.03,-0.25,-6.09
17.58,-0.02,-0.07,-0.01,-8.03,-0.25,-6.08
17.61,0.01,0.07,0.02,-8.03,-0.24,-6.07
17.63,-0.0,0.05,0.01,-8.02,-0.26,-6.08
17.65,-0.0,-0.04,0.02,-8.03,-0.26,-6.08
17.68,-0.0,-0.02,-0.01,-8.03,-0.25,-6.06
17.7,0.01,0.07,-0.01,-8.03,-0.26,-6.06
17.73,0.01,-0.02,-0.01,-8.03,-0.27,-6.09
17.75,-0.0,-0.05,0.01,-8.04,-0.25,-6.07
17.78,-0.0,0.07,0.01,-8.04,-0.24,-6.07
17.8,-0.0,0.02,0.01,-8.05,-0.24,-6.09
17.82,-0.0,-0.07,0.01,-8.02,-0.25,-6.06
17.85,0.01,0.01,0.01,-8.03,-0.26,-6.07
17.87,-0.03,0.05,-0.02,-8.03,-0.26,-6.08
17.9,-0.03,0.05,0.01,-8.02,-0.25,-6.08
17.92,-0.05,0.08,0.04,-8.02,-0.26,-6.07
17.94,-0.03,-0.02,0.04,-8.03,-0.26,-6.09
17.97,-0.02,-0.05,-0.01,-8.03,-0.26,-6.07
17.99,-0.0,0.05,-0.01,-8.04,-0.27,-6.07
18.02,-0.03,0.07,0.04,-8.04,-0.26,-6.07
18.04,-0.02,-0.07,0.01,-8.04,-0.26,-6.07
18.07,-0.02,0.01,0.02,-8.04,-0.26,-6.08
18.09,-0.03,0.07,-0.01,-8.03,-0.26,-6.07
18.12,-0.03,-0.04,-0.04,-8.03,-0.27,-6.06
18.14,-0.02,-0.04,0.01,-8.02,-0.25,-6.07
18.16,-0.0,0.07,0.01,-8.02,-0.25,-6.07
18.19,0.01,-0.01,-0.02,-8.04,-0.26,-6.09
18.21,-0.0,-0.04,0.01,-8.02,-0.26,-6.07
18.24,-0.0,0.07,0.01,-8.02,-0.26,-6.08
18.26,-0.02,0.05,-0.01,-8.04,-0.26,-6.08
18.29,-0.03,-0.02,-0.01,-8.04,-0.26,-6.08
18.31,-0.03,0.01,-0.01,-8.04,-0.26,-6.08
18.33,-0.03,0.05,0.02,-8.03,-0.26,-6.08
18.36,-0.03,-0.04,-0.01,-8.04,-0.26,-6.08
18.38,-0.0,-0.01,0.02,-8.04,-0.27,-6.07
18.41,0.03,0.04,0.01,-8.05,-0.25,-6.08
18.43,-0.02,-0.04,-0.01,-8.04,-0.26,-6.06
18.46,-0.0,-0.01,-0.01,-8.04,-0.26,-6.05
18.48,0.01,0.07,0.04,-8.04,-0.27,-6.07
18.5,-0.03,-0.02,0.01,-8.04,-0.25,-6.06
18.53,-0.02,-0.05,-0.01,-8.04,-0.25,-6.05
18.55,-0.0,0.07,-0.01,-8.02,-0.26,-6.06
18.58,-0.0,0.07,-0.01,-8.03,-0.25,-6.07
18.6,-0.02,-0.07,0.02,-8.03,-0.25,-6.07
18.63,-0.0,-0.02,0.04,-8.03,-0.26,-6.06
18.65,0.01,0.08,0.01,-8.03,-0.26,-6.06
18.67,0.01,-0.07,0.01,-8.04,-0.25,-6.06
18.7,-0.03,0.07,0.02,-8.02,-0.25,-6.07
18.72,-0.0,0.05,0.01,-8.04,-0.26,-6.08
18.75,0.01,-0.07,-0.01,-8.04,-0.24,-6.07
18.77,-0.02,0.04,0.02,-8.03,-0.25,-6.06
18.8,-0.0,0.04,0.02,-8.03,-0.26,-6.08
18.82,-0.0,-0.04,0.01,-8.02,-0.24,-6.09
18.84,-0.02,-0.02,-0.01,-8.02,-0.25,-6.08
18.87,-0.03,0.01,0.01,-8.04,-0.26,-6.06
18.89,0.01,0.04,-0.01,-8.03,-0.26,-6.07
18.92,-0.0,-0.02,0.01,-8.03,-0.26,-6.08
18.94,0.03,-0.04,0.01,-8.04,-0.25,-6.09
18.97,-0.02,0.02,0.01,-8.04,-0.26,-6.07
18.99,-0.0,-0.01,-0.01,-8.04,-0.26,-6.06
19.01,-0.02,0.02,-0.02,-8.03,-0.25,-6.07
19.04,-0.02,0.02,0.01,-8.04,-0.26,-6.07
19.06,-0.0,-0.01,-0.02,-8.03,-0.25,-6.09
19.09,-0.03,-0.01,-0.01,-8.03,-0.25,-6.08
19.11,-0.0,0.08,0.01,-8.04,-0.24,-6.08
19.14,-0.03,-0.01,0.01,-8.03,-0.26,-6.08
19.16,-0.0,-0.01,0.02,-8.04,-0.25,-6.06
19.19,-0.02,0.08,-0.01,-8.04,-0.25,-6.07
19.21,-0.02,-0.02,-0.01,-8.04,-0.25,-6.07
19.23,-0.03,-0.04,0.02,-8.04,-0.27,-6.07
19.26,0.03,0.05,-0.01,-8.04,-0.26,-6.1
19.28,-0.0,-0.02,0.02,-8.04,-0.25,-6.08
19.31,-0.02,-0.02,0.02,-8.05,-0.26,-6.09
19.33,-0.02,0.04,0.02,-8.01,-0.26,-6.08
19.36,0.01,0.01,-0.01,-8.03,-0.26,-6.06
19.38,0.01,-0.1,0.04,-8.03,-0.26,-6.04
19.4,-0.0,0.01,0.01,-8.02,-0.25,-6.06
19.43,-0.02,0.05,0.01,-8.03,-0.25,-6.08
19.45,-0.02,-0.02,-0.01,-8.03,-0.25,-6.09
19.48,-0.03,-0.05,0.01,-8.04,-0.25,-6.08
19.5,-0.03,0.07,-0.01,-8.03,-0.26,-6.07
19.53,-0.03,0.01,-0.02,-8.04,-0.27,-6.06
19.55,-0.02,0.01,-0.02,-8.04,-0.25,-6.05
19.57,-0.02,0.01,0.01,-8.05,-0.26,-6.06
19.6,-0.0,-0.05,-0.04,-8.04,-0.26,-6.03
19.62,0.01,0.02,0.01,-8.04,-0.27,-6.07
19.65,-0.0,-0.05,-0.04,-8.05,-0.26,-6.08
19.67,-0.02,0.04,-0.01,-8.03,-0.25,-6.09
19.7,0.01,0.01,-0.01,-8.03,-0.24,-6.09
19.72,-0.0,0.04,0.01,-8.04,-0.26,-6.06
19.75,-0.05,0.02,0.01,-8.03,-0.25,-6.04
19.77,-0.02,-0.05,-0.02,-8.04,-0.26,-6.06
19.79,0.03,-0.01,-0.01,-8.05,-0.27,-6.09
19.82,-0.03,0.07,0.04,-8.03,-0.26,-6.06
19.84,-0.02,0.01,0.01,-8.03,-0.25,-6.06
19.87,-0.02,-0.1,0.01,-8.03,-0.26,-6.06
19.89,-0.03,0.05,-0.02,-8.04,-0.26,-6.06
19.92,-0.02,0.08,0.01,-8.03,-0.26,-6.09
19.94,-0.0,-0.02,0.01,-8.03,-0.25,-6.08
19.96,-0.0,-0.08,0.02,-8.05,-0.26,-6.08
19.99,0.01,0.11,0.02,-8.05,-0.26,-6.06
20.01,-0.02,0.07,-0.01,-8.04,-0.27,-6.09
20.04,-0.0,-0.08,0.01,-8.03,-0.25,-6.09
20.06,-0.05,0.08,-0.01,-8.03,-0.26,-6.07
20.08,-0.02,0.07,-0.01,-8.02,-0.26,-6.09
20.11,-0.0,-0.05,-0.04,-8.04,-0.26,-6.07
20.13,0.03,-0.02,0.04,-8.03,-0.26,-6.06
20.16,0.01,0.11,0.04,-8.03,-0.26,-6.06
20.18,0.01,-0.08,0.01,-8.03,-0.24,-6.07
20.21,0.01,-0.05,0.01,-8.03,-0.26,-6.06
20.23,-0.0,0.21,0.02,-8.03,-0.26,-6.07
20.25,-0.02,0.02,0.01,-8.03,-0.24,-6.07
20.28,-0.0,-0.16,0.02,-8.05,-0.26,-6.06
20.3,-0.0,0.01,0.04,-8.04,-0.27,-6.07
20.33,-0.0,0.16,-0.02,-8.04,-0.27,-6.06
20.35,-0.0,-0.07,-0.01,-8.03,-0.27,-6.08
20.38,-0.03,-0.13,-0.02,-8.04,-0.26,-6.07
20.4,-0.0,0.01,0.01,-8.04,-0.25,-6.07
20.42,-0.02,0.05,-0.02,-8.03,-0.25,-6.07
20.45,-0.02,0.01,-0.04,-8.04,-0.25,-6.07
20.47,0.01,-0.01,-0.01,-8.03,-0.27,-6.07
20.5,0.01,-0.01,-0.04,-8.04,-0.26,-6.07
20.52,-0.0,0.04,-0.01,-8.03,-0.26,-6.06
20.55,-0.0,0.05,-0.01,-8.04,-0.25,-6.07
20.57,-0.02,-0.02,-0.02,-8.04,-0.25,-6.08
20.6,-0.02,0.01,-0.01,-8.04,-0.26,-6.1
20.62,-0.0,0.01,-0.01,-8.04,-0.27,-6.06
20.64,0.03,0.01,-0.01,-8.02,-0.26,-6.07
20.67,-0.03,0.04,-0.01,-8.03,-0.25,-6.07
20.69,-0.05,-0.01,0.01,-8.04,-0.26,-6.06
20.72,0.01,-0.07,0.02,-8.03,-0.25,-6.07
20.74,-0.0,0.04,-0.01,-8.04,-0.25,-6.07
20.77,0.01,0.04,-0.01,-8.03,-0.26,-6.08
20.79,-0.0,-0.04,-0.01,-8.03,-0.26,-6.07
20.81,0.01,-0.02,0.01,-8.03,-0.26,-6.07
20.84,-0.02,0.08,-0.01,-8.04,-0.26,-6.06
20.86,-0.0,0.04,0.02,-8.03,-0.25,-6.05
20.89,-0.02,-0.07,-0.01,-8.05,-0.26,-6.06
20.91,0.01,0.04,0.02,-8.03,-0.26,-6.06
20.94,-0.0,0.01,-0.04,-8.02,-0.26,-6.09
20.96,0.01,-0.1,-0.04,-8.04,-0.26,-6.09
20.98,-0.03,-0.01,-0.01,-8.04,-0.26,-6.08
21.01,0.01,0.07,0.02,-8.04,-0.26,-6.07
21.03,0.03,-0.05,-0.01,-8.04,-0.26,-6.08
21.06,-0.0,-0.08,-0.01,-8.04,-0.26,-6.06
21.08,-0.0,0.1,0.01,-8.04,-0.24,-6.07
21.11,-0.02,0.04,-0.01,-8.02,-0.25,-6.05
21.13,0.01,-0.1,0.02,-8.04,-0.26,-6.07
21.15,-0.0,-0.02,0.01,-8.04,-0.26,-6.07
21.18,0.03,0.04,-0.01,-8.03,-0.26,-6.07
21.2,-0.0,-0.05,0.01,-8.03,-0.27,-6.07
21.23,-0.02,0.01,0.04,-8.04,-0.26,-6.06
21.25,-0.02,0.04,0.02,-8.03,-0.26,-6.06
21.28,-0.02,-0.02,0.01,-8.04,-0.26,-6.08
21.3,-0.0,-0.02,-0.01,-8.04,-0.28,-6.06
21.32,-0.0,0.02,-0.01,-8.03,-0.25,-6.06
21.35,0.01,-0.01,0.01,-8.03,-0.25,-6.09
21.37,0.01,-0.02,-0.02,-8.03,-0.26,-6.07
21.4,-0.0,-0.02,-0.04,-8.04,-0.25,-6.06
21.42,0.01,-0.01,0.01,-8.04,-0.27,-6.09
21.45,0.01,0.04,0.01,-8.04,-0.26,-6.07
21.47,-0.0,0.05,0.01,-8.03,-0.25,-6.07
21.5,-0.0,-0.01,-0.02,-8.02,-0.26,-6.05
21.52,-0.0,0.05,-0.02,-8.02,-0.27,-6.06
21.54,0.01,0.01,-0.01,-8.04,-0.26,-6.09
21.57,-0.02,-0.07,0.01,-8.04,-0.25,-6.06
21.59,-0.03,0.11,0.04,-8.03,-0.25,-6.07
21.62,-0.02,-0.02,0.01,-8.03,-0.26,-6.09
21.64,-0.03,-0.1,-0.01,-8.04,-0.28,-6.06
21.67,-0.0,0.08,-0.02,-8.04,-0.27,-6.06
21.69,0.01,0.22,0.01,-8.03,-0.26,-6.07
21.71,-0.0,-0.18,-0.02,-8.05,-0.26,-6.1
21.74,0.03,-0.08,-0.02,-8.04,-0.25,-6.07
21.76,-0.0,0.24,-0.02,-8.05,-0.25,-6.06
21.79,0.01,-0.02,0.01,-8.03,-0.26,-6.07
21.81,-0.0,-0.16,-0.02,-8.04,-0.26,-6.04
21.83,-0.0,0.1,-0.01,-8.04,-0.26,-6.06
21.86,-0.02,0.1,0.01,-8.03,-0.26,-6.06
21.88,-0.0,-0.12,0.01,-8.04,-0.27,-6.05
21.91,0.03,-0.02,0.01,-8.04,-0.25,-6.06
21.93,0.03,0.08,0.01,-8.03,-0.25,-6.08
21.96,0.03,0.1,-0.01,-8.03,-0.25,-6.05
21.98,-0.0,-0.05,0.01,-8.03,-0.26,-6.08
22.0,-0.0,-0.01,-0.01,-8.03,-0.26,-6.05
22.03,-0.0,0.05,0.01,-8.02,-0.24,-6.07
22.05,-0.0,-0.01,0.04,-8.03,-0.26,-6.09
22.08,-0.0,-0.04,0.04,-8.03,-0.27,-6.07
22.1,-0.02,-0.02,0.01,-8.04,-0.27,-6.06
22.13,0.01,0.1,0.01,-8.05,-0.27,-6.07
22.15,-0.02,0.01,-0.01,-8.04,-0.26,-6.08
22.17,0.01,-0.05,0.01,-8.05,-0.27,-6.06
22.2,-0.02,0.01,-0.02,-8.05,-0.26,-6.05
22.22,0.01,0.1,0.02,-8.05,-0.25,-6.05
22.25,-0.03,0.04,-0.01,-8.04,-0.25,-6.06
22.27,-0.0,-0.08,0.01,-8.05,-0.26,-6.09
22.3,0.01,0.02,-0.02,-8.04,-0.27,-6.06
22.32,0.03,0.07,-0.02,-8.05,-0.27,-6.06
22.34,0.03,-0.05,0.01,-8.03,-0.26,-6.05
22.37,-0.0,0.07,-0.01,-8.02,-0.26,-6.08
22.39,-0.0,-0.1,-0.01,-8.03,-0.27,-6.08
22.42,-0.0,-0.02,-0.01,-8.04,-0.27,-6.05
22.44,-0.03,0.01,-0.01,-8.03,-0.26,-6.07
22.47,-0.03,0.24,-0.01,-8.03,-0.25,-6.07
22.49,-0.02,0.04,0.01,-8.04,-0.25,-6.09
22.51,-0.0,-0.31,-0.04,-8.05,-0.26,-6.06
22.54,0.01,0.13,-0.02,-8.03,-0.25,-6.05
22.56,-0.0,0.22,0.01,-8.04,-0.25,-6.08
22.59,-0.02,-0.22,0.01,-8.04,-0.24,-6.07
22.61,0.01,-0.15,0.04,-8.04,-0.26,-6.05
22.64,0.01,0.24,-0.01,-8.04,-0.27,-6.06
22.66,-0.0,0.07,-0.01,-8.04,-0.26,-6.05
22.68,-0.03,-0.19,0.01,-8.04,-0.27,-6.09
22.71,-0.03,0.01,0.01,-8.04,-0.27,-6.05
22.73,-0.02,0.11,-0.02,-8.03,-0.25,-6.07
22.76,-0.02,-0.02,-0.01,-8.03,-0.26,-6.08
22.78,-0.03,-0.15,0.02,-8.03,-0.27,-6.07
22.81,-0.0,0.08,0.01,-8.04,-0.26,-6.07
22.83,-0.02,0.02,0.02,-8.04,-0.28,-6.08
22.86,-0.02,-0.08,-0.01,-8.04,-0.27,-6.06
22.88,0.01,0.01,0.02,-8.04,-0.27,-6.07
22.9,-0.0,0.05,0.01,-8.04,-0.27,-6.06
22.93,-0.02,0.04,0.02,-8.02,-0.25,-6.06
22.95,-0.0,-0.04,-0.01,-8.02,-0.26,-6.07
22.98,-0.02,0.05,-0.04,-8.04,-0.26,-6.08
23.0,-0.02,0.05,-0.02,-8.03,-0.25,-6.07
23.03,-0.0,0.02,-0.01,-8.03,-0.26,-6.05
23.05,-0.03,-0.04,-0.01,-8.02,-0.25,-6.07
23.07,0.01,0.07,0.01,-8.03,-0.26,-6.05
23.1,0.03,0.02,-0.02,-8.03,-0.25,-6.07
23.12,0.01,-0.04,-0.01,-8.02,-0.25,-6.07
23.15,-0.0,0.04,0.01,-8.02,-0.26,-6.06
23.17,-0.05,-0.01,-0.01,-8.02,-0.24,-6.07
23.2,-0.0,-0.04,0.01,-8.03,-0.25,-6.05
23.22,0.01,0.02,-0.01,-8.04,-0.27,-6.05
23.24,0.03,0.07,0.02,-8.04,-0.25,-6.07
23.27,0.03,-0.08,0.02,-8.03,-0.26,-6.09
23.29,-0.0,-0.04,0.02,-8.03,-0.27,-6.09
23.32,0.03,0.08,0.02,-8.04,-0.27,-6.07
23.34,-0.0,-0.01,-0.02,-8.04,-0.26,-6.08
23.37,-0.0,-0.04,-0.02,-8.04,-0.26,-6.07
23.39,-0.0,0.05,0.01,-8.03,-0.26,-6.05
23.41,-0.02,-0.02,0.02,-8.04,-0.27,-6.06
23.44,-0.02,-0.05,0.01,-8.03,-0.26,-6.07
23.46,-0.0,0.07,-0.02,-8.03,-0.25,-6.08
23.49,-0.0,0.04,-0.01,-8.04,-0.26,-6.06
23.51,0.01,-0.04,0.02,-8.02,-0.26,-6.05
23.54,-0.0,-0.04,-0.01,-8.04,-0.26,-6.07
23.56,0.03,0.04,-0.02,-8.04,-0.26,-6.09
23.58,0.03,-0.02,-0.02,-8.04,-0.26,-6.05
23.61,-0.0,-0.02,0.01,-8.04,-0.26,-6.06
23.63,-0.03,0.04,0.02,-8.02,-0.26,-6.07
23.66,-0.02,-0.01,0.02,-8.02,-0.26,-6.05
23.68,-0.0,-0.05,0.02,-8.03,-0.25,-6.07
23.71,-0.0,0.01,0.01,-8.02,-0.25,-6.08
23.73,0.01,0.02,0.02,-8.04,-0.24,-6.08
23.75,-0.0,-0.04,0.01,-8.04,-0.27,-6.08
23.78,0.01,0.01,0.02,-8.04,-0.26,-6.08
23.8,0.01,0.04,0.04,-8.03,-0.25,-6.06
23.83,0.03,-0.02,-0.04,-8.04,-0.25,-6.04
23.85,-0.0,-0.05,-0.02,-8.02,-0.27,-6.06
23.88,-0.02,0.07,-0.01,-8.03,-0.26,-6.07
23.9,-0.0,0.01,0.01,-8.03,-0.26,-6.09
23.92,0.01,-0.08,0.01,-8.05,-0.26,-6.08
23.95,-0.0,0.07,0.01,-8.03,-0.25,-6.04
23.97,-0.02,-0.16,0.02,-8.03,-0.25,-6.06
24.0,-0.02,0.04,0.01,-8.04,-0.26,-6.05
24.02,0.01,0.05,0.01,-8.04,-0.27,-6.06
24.04,-0.0,0.1,0.02,-8.03,-0.27,-6.07
24.07,0.03,-0.08,-0.01,-8.03,-0.27,-6.07
24.09,-0.02,-0.15,-0.01,-8.04,-0.27,-6.05
24.12,-0.03,0.11,-0.01,-8.04,-0.25,-6.06
24.14,0.01,0.17,0.02,-8.04,-0.26,-6.08
24.17,0.01,-0.25,0.02,-8.04,-0.27,-6.05
24.19,0.04,-0.07,0.01,-8.05,-0.27,-6.06
24.21,0.01,0.25,-0.01,-8.03,-0.27,-6.07
24.24,0.01,-0.01,0.01,-8.02,-0.27,-6.1
24.26,-0.02,-0.15,-0.01,-8.03,-0.28,-6.05
24.29,-0.0,0.14,0.02,-8.02,-0.27,-6.05
24.31,-0.02,0.04,0.01,-8.03,-0.26,-6.06
24.34,0.01,-0.16,0.04,-8.04,-0.26,-6.05
24.36,-0.0,0.05,-0.01,-8.04,-0.26,-6.06
24.38,-0.03,0.16,-0.01,-8.02,-0.25,-6.09
24.41,-0.02,-0.19,0.01,-8.04,-0.26,-6.07
24.43,0.03,-0.08,-0.01,-8.04,-0.26,-6.06
24.46,0.01,0.14,-0.02,-8.03,-0.25,-6.09
24.48,0.01,-0.02,-0.01,-8.03,-0.25,-6.09
24.51,-0.0,-0.08,0.01,-8.04,-0.25,-6.07
24.53,0.01,0.04,-0.02,-8.02,-0.27,-6.07
24.55,0.01,0.07,-0.02,-8.04,-0.26,-6.07
24.58,0.03,-0.02,0.02,-8.04,-0.26,-6.07
24.6,0.01,-0.1,-0.01,-8.03,-0.26,-6.08
24.63,0.03,0.05,-0.01,-8.02,-0.27,-6.08
24.65,-0.02,-0.02,-0.02,-8.03,-0.27,-6.08
24.68,0.03,-0.08,0.02,-8.03,-0.25,-6.06
24.7,0.03,0.07,0.02,-8.04,-0.26,-6.06
24.72,0.03,0.02,0.04,-8.03,-0.26,-6.07
24.75,0.01,-0.12,0.01,-8.03,-0.26,-6.07
24.77,-0.0,0.04,-0.01,-8.02,-0.26,-6.05
24.8,0.03,0.11,-0.01,-8.02,-0.26,-6.07
24.82,-0.0,-0.07,0.01,-8.05,-0.26,-6.08
24.85,-0.0,-0.12,-0.01,-8.04,-0.26,-6.06
24.87,0.01,0.13,-0.02,-8.03,-0.25,-6.07
24.89,0.06,0.05,-0.01,-8.04,-0.26,-6.09
24.92,-0.02,-0.15,0.01,-8.04,-0.26,-6.07
24.94,0.01,0.08,0.01,-8.04,-0.27,-6.07
24.97,-0.0,0.07,0.01,-8.04,-0.27,-6.07
24.99,-0.0,-0.1,0.02,-8.03,-0.26,-6.06
25.02,-0.0,0.02,-0.01,-8.02,-0.27,-6.06
25.04,-0.0,0.02,0.01,-8.05,-0.25,-6.09
25.06,-0.02,-0.04,-0.01,-8.03,-0.25,-6.07
25.09,-0.03,-0.04,-0.01,-8.03,-0.27,-6.06
25.11,-0.02,0.02,0.01,-8.04,-0.26,-6.07
25.14,0.03,-0.02,-0.01,-8.03,-0.26,-6.06
25.16,-0.02,-0.02,0.02,-8.04,-0.25,-6.07
25.19,-0.02,0.05,-0.01,-8.05,-0.27,-6.07
25.21,0.01,0.02,-0.01,-8.04,-0.28,-6.07
25.23,0.01,-0.04,-0.01,-8.04,-0.27,-6.07
25.26,-0.02,0.01,-0.01,-8.04,-0.26,-6.08
25.28,-0.0,0.05,-0.01,-8.04,-0.26,-6.08
25.31,-0.02,-0.04,-0.01,-8.03,-0.26,-6.08
25.33,0.01,-0.04,-0.01,-8.04,-0.27,-6.08
25.36,0.01,0.04,0.02,-8.03,-0.26,-6.06
25.38,-0.0,0.01,-0.01,-8.02,-0.27,-6.09
25.4,0.03,-0.13,0.02,-8.03,-0.26,-6.09
25.43,0.01,-0.04,-0.02,-8.03,-0.26,-6.06
25.45,-0.02,0.05,0.01,-8.03,-0.25,-6.07
25.48,-0.03,-0.05,0.01,-8.04,-0.25,-6.07
25.5,-0.02,-0.04,-0.01,-8.03,-0.26,-6.06
25.53,-0.0,0.04,0.01,-8.03,-0.27,-6.06
25.55,-0.0,-0.01,0.01,-8.03,-0.27,-6.07
25.57,-0.0,0.07,0.01,-8.04,-0.25,-6.06
25.6,-0.0,0.02,0.02,-8.04,-0.26,-6.08
25.62,-0.02,-0.07,-0.01,-8.04,-0.26,-6.08
25.65,-0.03,0.02,0.01,-8.04,-0.25,-6.06
25.67,-0.0,0.05,0.02,-8.04,-0.25,-6.07
25.7,0.01,-0.12,0.01,-8.03,-0.26,-6.06
25.72,-0.0,-0.02,-0.01,-8.04,-0.24,-6.07
25.75,0.03,0.08,0.01,-8.03,-0.27,-6.08
25.77,-0.0,-0.01,-0.01,-8.03,-0.28,-6.08
25.79,-0.0,-0.16,0.02,-8.03,-0.27,-6.08
25.82,0.01,0.11,0.02,-8.05,-0.27,-6.07
25.84,0.01,0.01,0.02,-8.04,-0.26,-6.06
25.87,0.01,-0.18,0.04,-8.05,-0.26,-6.09
25.89,-0.0,0.13,-0.01,-8.03,-0.26,-6.07
25.92,-0.02,0.08,0.01,-8.03,-0.27,-6.08
25.94,0.01,-0.1,-0.01,-8.05,-0.26,-6.07
25.96,-0.02,-0.01,-0.01,-8.04,-0.25,-6.07
25.99,0.01,0.07,0.01,-8.04,-0.25,-6.05
26.01,-0.02,-0.07,0.02,-8.04,-0.26,-6.05
26.04,-0.0,-0.12,-0.01,-8.04,-0.25,-6.06
26.06,-0.0,-0.02,0.01,-8.03,-0.26,-6.04
26.08,0.01,0.1,-0.01,-8.03,-0.26,-6.07
26.11,0.04,0.01,0.01,-8.03,-0.25,-6.08
26.13,-0.02,-0.04,-0.02,-8.04,-0.25,-6.06
26.16,-0.03,-0.04,-0.01,-8.04,-0.27,-6.05
26.18,-0.0,0.05,-0.02,-8.03,-0.26,-6.07
26.21,0.03,0.04,0.04,-8.04,-0.27,-6.05
26.23,-0.0,-0.08,-0.02,-8.05,-0.26,-6.06
26.26,-0.02,0.08,-0.01,-8.04,-0.26,-6.08
26.28,-0.02,-0.04,-0.02,-8.03,-0.27,-6.07
26.3,-0.03,-0.1,-0.01,-8.04,-0.26,-6.07
26.33,-0.02,0.14,0.02,-8.05,-0.25,-6.06
26.35,-0.0,0.07,0.02,-8.04,-0.27,-6.08
26.38,-0.0,-0.18,0.01,-8.04,-0.26,-6.05
26.4,0.01,0.05,-0.01,-8.03,-0.25,-6.07
26.43,-0.0,0.14,-0.01,-8.03,-0.25,-6.06
26.45,-0.0,-0.05,0.02,-8.03,-0.26,-6.08
26.47,-0.02,-0.19,-0.01,-8.05,-0.26,-6.06
26.5,-0.03,0.19,-0.01,-8.04,-0.27,-6.08
26.52,0.01,0.11,-0.01,-8.03,-0.26,-6.06
26.55,-0.0,-0.25,0.02,-8.02,-0.27,-6.06
26.57,-0.0,0.07,-0.01,-8.04,-0.27,-6.05
26.6,0.01,0.16,0.01,-8.04,-0.26,-6.07
26.62,-0.0,-0.19,0.01,-8.04,-0.26,-6.06
26.64,-0.03,-0.12,0.02,-8.04,-0.27,-6.05
26.67,0.01,0.27,-0.02,-8.02,-0.26,-6.09
26.69,-0.0,0.01,-0.02,-8.03,-0.25,-6.09
26.72,-0.03,-0.24,0.01,-8.03,-0.25,-6.07
26.74,-0.0,0.05,-0.01,-8.05,-0.26,-6.07
26.77,0.01,0.16,0.01,-8.05,-0.26,-6.07
26.79,-0.05,-0.07,0.01,-8.04,-0.25,-6.07
26.81,-0.02,-0.15,0.01,-8.04,-0.26,-6.05
26.84,-0.0,0.1,0.04,-8.05,-0.28,-6.07
26.86,-0.0,0.05,0.01,-8.03,-0.26,-6.08
26.89,-0.0,-0.02,0.01,-8.02,-0.26,-6.06
26.91,-0.02,-0.05,0.02,-8.03,-0.27,-6.07
26.94,-0.03,0.1,0.01,-8.02,-0.26,-6.08
