Time[s],RateRoll[deg/s],RatePitch[deg/s],RateYaw[deg/s],AccX[m/s^2],AccY[m/s^2],AccZ[m/s^2],Torque[Nm]
9.58,0.02,-0.04,-0.0,0.53,0.0,9.33,0.89
9.6,0.02,-0.03,0.0,0.53,0.0,9.32,1.17
9.62,-0.01,0.0,0.02,0.54,0.0,9.33,1.38
9.64,-0.04,0.05,0.04,0.54,0.0,9.33,1.34
9.65,-0.06,0.09,0.06,0.54,0.01,9.33,1.07
9.67,-0.06,0.11,0.09,0.53,0.02,9.33,0.83
9.69,-0.05,0.11,0.1,0.53,0.02,9.31,0.77
9.71,-0.04,0.09,0.09,0.53,0.02,9.29,0.8
9.73,-0.05,0.06,0.08,0.52,0.01,9.28,0.71
9.74,-0.08,0.02,0.09,0.5,-0.0,9.28,0.35
9.76,-0.09,-0.01,0.08,0.49,-0.0,9.29,-0.07
9.78,-0.08,-0.02,0.05,0.5,0.0,9.31,-0.36
9.8,-0.07,-0.03,0.02,0.5,0.0,9.31,-0.39
9.82,-0.05,-0.04,-0.0,0.51,0.01,9.32,-0.37
9.83,-0.06,-0.06,-0.02,0.51,0.01,9.32,-0.49
9.85,-0.08,-0.08,-0.01,0.52,0.01,9.32,-0.77
9.87,-0.09,-0.08,0.0,0.52,0.01,9.31,-0.98
9.89,-0.08,-0.06,0.01,0.53,0.02,9.3,-0.93
9.9,-0.06,-0.04,0.02,0.53,0.01,9.31,-0.67
9.92,-0.03,-0.05,0.02,0.53,0.01,9.32,-0.43
9.94,-0.01,-0.05,0.02,0.52,0.01,9.33,-0.37
9.96,0.01,-0.04,0.0,0.52,0.0,9.33,-0.4
9.98,0.02,-0.01,-0.01,0.52,-0.0,9.33,-0.3
9.99,0.01,0.0,-0.01,0.52,-0.01,9.31,0.05
10.01,-0.02,-0.01,-0.01,0.53,-0.01,9.3,0.49
10.03,-0.05,-0.05,-0.01,0.54,-0.0,9.28,0.76
10.05,-0.08,-0.05,0.0,0.54,-0.0,9.28,0.79
10.06,-0.08,-0.01,0.01,0.53,-0.0,9.29,0.77
10.08,-0.07,0.06,0.0,0.52,-0.01,9.31,0.9
10.1,-0.06,0.09,-0.0,0.52,-0.01,9.31,1.17
10.12,-0.04,0.09,-0.01,0.52,-0.01,9.31,1.39
10.14,-0.01,0.08,-0.03,0.52,0.0,9.31,1.33
10.16,0.01,0.06,-0.04,0.53,0.0,9.32,1.05
10.17,-0.01,0.03,-0.06,0.54,-0.0,9.33,0.83
10.19,-0.04,0.0,-0.07,0.54,-0.01,9.33,0.77
10.21,-0.05,-0.01,-0.06,0.55,-0.01,9.34,0.8
10.23,-0.05,-0.02,-0.05,0.55,-0.01,9.33,0.68
10.25,-0.04,-0.0,-0.04,0.55,-0.02,9.32,0.3
10.26,-0.02,0.02,-0.03,0.54,-0.03,9.31,-0.11
10.28,-0.0,0.01,-0.02,0.54,-0.02,9.3,-0.37
10.3,0.01,-0.02,-0.01,0.55,-0.02,9.3,-0.39
10.32,0.01,-0.04,0.0,0.57,-0.02,9.29,-0.37
10.34,0.01,-0.05,0.02,0.57,-0.01,9.29,-0.51
10.35,-0.0,-0.04,0.03,0.56,0.0,9.29,-0.8
10.37,-0.02,-0.01,0.02,0.54,0.01,9.29,-0.99
10.39,-0.03,0.02,0.01,0.54,0.02,9.29,-0.91
10.41,-0.02,0.03,-0.01,0.53,0.02,9.28,-0.65
10.43,-0.02,-0.0,-0.01,0.53,0.03,9.29,-0.41
10.44,-0.03,-0.04,-0.02,0.53,0.03,9.29,-0.37
10.46,-0.04,-0.06,-0.02,0.54,0.03,9.3,-0.4
10.48,-0.04,-0.05,-0.02,0.54,0.03,9.32,-0.27
10.5,-0.02,-0.03,0.0,0.54,0.03,9.33,0.12
10.51,-0.0,0.0,0.01,0.54,0.02,9.33,0.53
10.53,0.01,0.02,0.01,0.54,0.02,9.33,0.77
10.55,0.0,0.02,-0.01,0.53,0.01,9.33,0.79
10.57,-0.02,0.01,-0.03,0.53,0.0,9.33,0.77
10.59,-0.05,-0.02,-0.04,0.52,-0.0,9.33,0.93
10.6,-0.06,-0.03,-0.03,0.52,-0.01,9.32,1.22
10.62,-0.06,-0.02,-0.01,0.52,-0.01,9.31,1.39
10.64,-0.06,0.01,0.01,0.52,-0.01,9.3,1.3
10.66,-0.03,0.04,0.03,0.52,0.0,9.31,1.04
10.68,0.0,0.05,0.03,0.52,0.0,9.31,0.8
10.69,0.02,0.04,0.03,0.53,0.01,9.31,0.77
10.71,0.03,0.03,0.04,0.53,0.01,9.31,0.8
10.73,0.02,0.03,0.05,0.54,0.01,9.32,0.65
10.75,0.0,0.03,0.06,0.54,0.01,9.33,0.28
10.77,0.01,0.03,0.07,0.55,0.03,9.34,-0.15
10.78,0.03,0.04,0.07,0.55,0.04,9.34,-0.38
10.8,0.03,0.06,0.05,0.55,0.04,9.33,-0.39
10.82,0.0,0.07,0.02,0.55,0.04,9.33,-0.38
10.84,-0.01,0.08,-0.01,0.56,0.03,9.33,-0.53
10.85,0.01,0.09,-0.03,0.56,0.02,9.32,-0.83
10.87,0.03,0.09,-0.04,0.56,0.01,9.32,-1.0
10.89,0.04,0.09,-0.03,0.57,0.01,9.31,-0.89
10.91,0.04,0.08,-0.01,0.57,0.01,9.31,-0.62
10.93,0.06,0.06,0.0,0.56,0.01,9.3,-0.4
10.94,0.05,0.04,0.0,0.54,-0.0,9.3,-0.37
10.96,0.05,0.02,0.0,0.53,-0.01,9.3,-0.4
10.98,0.04,0.01,-0.0,0.52,-0.0,9.31,-0.24
11.0,0.04,-0.01,-0.02,0.52,0.01,9.32,0.15
11.02,0.04,-0.02,-0.03,0.52,0.02,9.32,0.57
11.03,0.05,-0.0,-0.02,0.53,0.01,9.32,0.78
11.05,0.05,0.01,0.01,0.54,-0.0,9.33,0.78
11.07,0.06,0.03,0.04,0.55,-0.0,9.33,0.78
11.09,0.06,0.04,0.03,0.55,-0.0,9.33,0.94
11.1,0.06,0.04,0.0,0.55,-0.0,9.34,1.23
11.12,0.05,0.03,-0.02,0.55,-0.0,9.34,1.4
11.14,0.03,0.01,-0.03,0.55,-0.01,9.34,1.29
11.16,0.01,-0.01,-0.03,0.54,-0.01,9.33,1.0
11.18,-0.01,-0.02,-0.0,0.54,-0.01,9.32,0.8
11.19,-0.01,-0.02,0.02,0.53,-0.0,9.3,0.78
11.21,-0.01,-0.02,0.04,0.53,-0.0,9.29,0.8
11.23,-0.03,-0.01,0.03,0.54,-0.0,9.29,0.62
11.25,-0.04,-0.02,0.02,0.54,-0.01,9.3,0.25
11.27,-0.03,-0.03,0.02,0.55,-0.01,9.31,-0.19
11.28,-0.01,-0.04,0.03,0.55,-0.0,9.32,-0.39
11.3,0.04,-0.02,0.04,0.55,0.01,9.32,-0.38
11.32,0.1,-0.02,0.02,0.55,0.01,9.31,-0.38
11.34,0.13,-0.02,-0.0,0.54,0.01,9.32,-0.56
11.36,0.12,0.0,-0.03,0.54,0.01,9.33,-0.86
11.37,0.1,0.03,-0.05,0.55,0.01,9.34,-1.0
11.39,0.07,0.02,-0.07,0.55,0.01,9.35,-0.86
11.41,0.02,-0.0,-0.07,0.55,0.0,9.34,-0.59
11.43,-0.01,-0.01,-0.06,0.56,-0.0,9.34,-0.39
11.45,-0.01,0.0,-0.06,0.56,0.0,9.34,-0.38
11.46,-0.01,0.01,-0.06,0.56,0.01,9.33,-0.39
11.48,-0.01,0.02,-0.03,0.55,0.01,9.33,-0.21
11.5,-0.03,0.01,-0.0,0.53,0.0,9.33,0.2
11.52,-0.05,-0.02,0.0,0.53,-0.01,9.34,0.59
11.54,-0.07,-0.05,-0.0,0.52,-0.02,9.35,0.79
11.55,-0.09,-0.07,-0.01,0.51,-0.02,9.35,0.78
11.57,-0.09,-0.08,0.01,0.5,-0.01,9.34,0.79
11.59,-0.09,-0.06,0.03,0.5,-0.0,9.33,0.97
11.61,-0.08,-0.02,0.06,0.51,0.01,9.32,1.27
11.63,-0.04,0.0,0.09,0.51,0.01,9.32,1.4
11.64,-0.0,0.02,0.11,0.51,0.02,9.32,1.26
11.66,0.0,0.0,0.09,0.51,0.02,9.32,0.97
11.68,-0.01,-0.0,0.05,0.51,0.02,9.33,0.78
11.7,-0.02,-0.0,0.02,0.51,0.02,9.33,0.78
11.72,-0.04,-0.01,0.0,0.52,0.01,9.33,0.79
11.73,-0.05,-0.03,-0.01,0.53,0.01,9.32,0.61
11.75,-0.03,-0.03,-0.03,0.53,0.01,9.31,0.17
11.77,-0.02,-0.03,-0.04,0.54,0.0,9.3,-0.21
11.79,-0.01,-0.02,-0.05,0.53,0.01,9.32,-0.39
11.8,-0.01,-0.01,-0.05,0.53,0.01,9.32,-0.38
11.82,-0.02,0.01,-0.05,0.53,0.01,9.32,-0.4
11.84,-0.02,0.01,-0.04,0.54,0.01,9.31,-0.59
11.86,-0.05,0.0,-0.01,0.55,0.01,9.31,-0.87
11.88,-0.08,-0.0,0.01,0.55,0.01,9.31,-1.0
11.89,-0.11,-0.01,0.02,0.55,0.01,9.32,-0.85
11.91,-0.11,-0.01,0.03,0.55,0.01,9.34,-0.56
11.93,-0.08,-0.0,0.03,0.54,0.02,9.34,-0.38
11.95,-0.05,0.0,0.03,0.54,0.02,9.33,-0.38
11.97,-0.04,0.01,0.01,0.54,0.02,9.31,-0.38
11.98,-0.04,0.01,-0.01,0.54,0.01,9.31,-0.19
12.0,-0.03,0.0,-0.02,0.55,0.0,9.31,0.25
12.02,-0.03,-0.01,-0.03,0.56,-0.0,9.32,0.62
12.04,-0.05,-0.04,-0.03,0.56,-0.0,9.32,0.8
12.06,-0.05,-0.05,-0.01,0.56,-0.0,9.31,0.78
12.07,-0.05,-0.04,-0.01,0.56,-0.0,9.3,0.8
12.09,-0.04,-0.0,-0.0,0.56,-0.0,9.3,1.0
12.11,-0.03,0.02,0.0,0.57,-0.0,9.31,1.29
12.13,-0.03,0.03,0.01,0.57,-0.0,9.32,1.4
12.15,-0.05,0.02,0.02,0.56,-0.0,9.34,1.23
12.16,-0.05,0.0,0.04,0.55,0.01,9.35,0.94
12.18,-0.05,-0.03,0.06,0.55,0.01,9.36,0.78
12.2,-0.03,-0.05,0.08,0.55,0.02,9.36,0.78
12.22,0.0,-0.05,0.09,0.54,0.02,9.36,0.78
12.23,-0.0,-0.03,0.09,0.53,0.02,9.35,0.57
12.25,-0.02,0.0,0.09,0.52,0.01,9.33,0.12
12.27,-0.03,0.05,0.08,0.51,0.01,9.31,-0.24
12.29,-0.01,0.09,0.05,0.51,0.0,9.29,-0.4
12.31,0.01,0.11,0.04,0.5,-0.0,9.29,-0.37
12.32,0.02,0.12,0.03,0.5,-0.0,9.29,-0.4
12.34,0.02,0.13,0.03,0.51,0.01,9.29,-0.62
12.36,-0.0,0.13,0.03,0.51,0.01,9.31,-0.9
12.38,-0.05,0.12,0.02,0.52,0.02,9.32,-1.0
12.4,-0.09,0.08,-0.01,0.52,0.01,9.33,-0.82
12.41,-0.12,0.05,-0.02,0.51,0.0,9.33,-0.54
12.43,-0.13,-0.0,-0.03,0.5,-0.01,9.32,-0.37
12.45,-0.14,-0.05,-0.04,0.5,-0.02,9.32,-0.39
12.47,-0.13,-0.07,-0.05,0.5,-0.03,9.33,-0.37
12.48,-0.12,-0.1,-0.04,0.51,-0.03,9.35,-0.15
12.5,-0.1,-0.13,-0.04,0.51,-0.02,9.36,0.3
12.52,-0.06,-0.12,-0.05,0.52,-0.01,9.37,0.65
12.54,-0.04,-0.1,-0.06,0.53,-0.0,9.37,0.8
12.56,-0.02,-0.08,-0.07,0.54,0.01,9.36,0.77
12.57,0.0,-0.06,-0.04,0.55,0.02,9.35,0.81
12.59,0.02,-0.03,0.0,0.55,0.03,9.35,1.04
12.61,0.03,0.0,0.05,0.54,0.03,9.35,1.31
12.63,0.01,0.01,0.08,0.52,0.03,9.35,1.4
12.65,-0.0,-0.0,0.09,0.51,0.02,9.34,1.2
12.66,-0.0,-0.03,0.08,0.51,0.01,9.34,0.93
12.68,0.01,-0.06,0.06,0.51,0.0,9.33,0.77
12.7,0.01,-0.08,0.05,0.51,-0.0,9.32,0.79
12.72,-0.01,-0.07,0.04,0.52,-0.0,9.32,0.77
12.74,-0.03,-0.03,0.02,0.53,-0.0,9.3,0.51
12.75,-0.05,0.01,0.0,0.53,0.0,9.29,0.1
12.77,-0.06,0.03,-0.01,0.54,0.01,9.31,-0.27
12.79,-0.03,0.04,-0.01,0.55,0.01,9.34,-0.4
12.81,0.0,0.06,-0.02,0.55,0.0,9.34,-0.37
12.83,0.03,0.06,-0.02,0.54,-0.0,9.33,-0.42
12.85,0.04,0.06,-0.02,0.54,-0.0,9.31,-0.67
12.86,0.06,0.04,-0.01,0.54,-0.0,9.3,-0.92
12.88,0.07,0.03,0.01,0.54,0.0,9.31,-0.99
12.9,0.07,0.02,0.02,0.53,0.01,9.32,-0.78
12.92,0.03,0.01,0.01,0.53,0.01,9.33,-0.51
12.93,-0.01,0.03,-0.02,0.53,0.01,9.33,-0.37
12.95,-0.03,0.05,-0.03,0.52,0.01,9.32,-0.39
12.97,-0.02,0.06,-0.03,0.53,-0.0,9.32,-0.37
12.99,-0.0,0.05,-0.02,0.53,-0.01,9.34,-0.09
13.01,-0.01,0.02,0.0,0.53,-0.01,9.35,0.32
13.02,-0.02,0.01,0.02,0.52,-0.0,9.35,0.7
13.04,-0.02,0.0,0.02,0.52,-0.0,9.35,0.8
13.06,-0.01,-0.0,0.02,0.51,-0.0,9.35,0.77
13.08,0.01,-0.02,0.01,0.51,-0.0,9.35,0.83
13.09,0.02,-0.03,0.01,0.51,-0.0,9.35,1.05
13.11,0.02,-0.04,0.02,0.52,-0.0,9.34,1.33
13.13,0.01,-0.07,0.03,0.52,-0.0,9.32,1.39
13.15,0.02,-0.1,0.03,0.52,-0.0,9.31,1.17
13.17,0.04,-0.12,0.02,0.52,-0.01,9.31,0.89
13.19,0.04,-0.1,-0.02,0.52,-0.02,9.31,0.77
13.2,0.05,-0.07,-0.05,0.51,-0.02,9.3,0.79
13.22,0.07,-0.03,-0.06,0.51,-0.01,9.29,0.76
13.24,0.08,0.03,-0.06,0.51,0.0,9.29,0.47
13.26,0.04,0.08,-0.04,0.52,0.02,9.29,0.05
13.27,-0.0,0.11,-0.02,0.52,0.03,9.29,-0.31
13.29,-0.04,0.13,0.01,0.53,0.04,9.29,-0.4
13.31,-0.06,0.13,0.03,0.53,0.03,9.3,-0.37
13.33,-0.07,0.12,0.02,0.54,0.02,9.3,-0.43
13.35,-0.07,0.09,0.0,0.54,0.02,9.29,-0.68
13.36,-0.05,0.07,-0.01,0.53,0.01,9.28,-0.94
13.38,-0.04,0.06,-0.01,0.53,0.01,9.29,-0.98
13.4,-0.03,0.05,-0.01,0.53,0.0,9.31,-0.75
13.42,-0.01,0.04,-0.0,0.53,-0.01,9.32,-0.48
13.44,0.0,0.05,-0.0,0.53,-0.01,9.33,-0.37
13.45,0.02,0.05,-0.02,0.54,-0.01,9.32,-0.4
13.47,0.03,0.04,-0.03,0.53,-0.01,9.31,-0.35
13.49,0.04,0.03,-0.04,0.52,-0.02,9.3,-0.04
13.51,0.04,0.03,-0.03,0.51,-0.02,9.31,0.37
13.53,0.04,0.04,-0.01,0.5,-0.02,9.32,0.72
13.54,0.02,0.04,0.0,0.51,-0.02,9.32,0.8
13.56,-0.01,0.02,0.0,0.51,-0.02,9.32,0.77
13.58,-0.05,0.01,-0.0,0.52,-0.03,9.32,0.84
13.6,-0.07,-0.01,-0.02,0.53,-0.02,9.3,1.1
13.61,-0.06,-0.03,-0.02,0.54,-0.0,9.29,1.35
13.63,-0.03,-0.04,-0.04,0.54,0.01,9.28,1.37
13.65,-0.01,-0.05,-0.05,0.54,0.01,9.27,1.15
13.67,-0.01,-0.04,-0.06,0.54,0.01,9.27,0.87
13.69,-0.01,-0.02,-0.07,0.54,0.0,9.27,0.77
13.71,-0.02,0.02,-0.07,0.54,0.0,9.27,0.8
13.72,-0.01,0.06,-0.07,0.54,0.01,9.28,0.74
13.74,0.0,0.08,-0.08,0.54,0.01,9.29,0.42
13.76,0.02,0.06,-0.08,0.55,0.02,9.3,0.0
13.78,0.04,0.03,-0.05,0.55,0.02,9.31,-0.32
13.79,0.05,0.01,-0.0,0.56,0.01,9.3,-0.4
13.81,0.04,-0.0,0.03,0.56,0.01,9.29,-0.37
13.83,0.01,0.0,0.04,0.55,0.0,9.3,-0.45
13.85,-0.02,0.03,0.04,0.54,-0.0,9.32,-0.72
13.86,-0.05,0.05,0.05,0.53,-0.0,9.33,-0.95
13.88,-0.07,0.03,0.04,0.53,-0.0,9.33,-0.96
13.9,-0.07,0.01,0.01,0.54,0.0,9.31,-0.73
13.92,-0.05,0.01,-0.03,0.55,0.0,9.29,-0.45
13.94,-0.06,0.02,-0.05,0.55,-0.0,9.28,-0.37
13.96,-0.07,0.03,-0.05,0.54,-0.0,9.28,-0.4
13.97,-0.05,0.03,-0.03,0.52,0.01,9.29,-0.33
13.99,-0.0,0.03,0.0,0.51,0.01,9.29,-0.02
14.01,0.05,0.03,0.02,0.51,0.02,9.3,0.42
14.03,0.09,0.02,0.01,0.51,0.02,9.3,0.73
14.05,0.11,0.01,0.01,0.53,0.01,9.31,0.8
14.06,0.11,0.0,0.03,0.55,0.0,9.32,0.77
14.08,0.09,0.02,0.03,0.56,-0.0,9.33,0.87
14.1,0.05,0.03,0.01,0.56,-0.01,9.33,1.13
14.12,0.02,0.02,-0.01,0.55,-0.02,9.34,1.36
14.14,-0.0,-0.0,-0.03,0.55,-0.02,9.35,1.35
14.15,-0.01,0.0,-0.05,0.54,-0.01,9.34,1.12
14.17,0.0,0.02,-0.07,0.53,-0.01,9.33,0.84
14.19,0.02,0.03,-0.08,0.53,-0.0,9.33,0.77
14.21,0.02,0.02,-0.07,0.54,0.0,9.31,0.8
14.22,0.01,0.0,-0.06,0.54,-0.0,9.3,0.72
14.24,-0.0,-0.02,-0.04,0.54,-0.01,9.3,0.4
14.26,0.0,-0.02,-0.0,0.54,-0.01,9.3,-0.04
14.28,0.01,-0.01,0.01,0.54,-0.01,9.31,-0.34
14.3,0.01,0.02,0.01,0.53,-0.01,9.32,-0.4
14.31,0.0,0.04,0.02,0.52,-0.01,9.33,-0.37
14.33,-0.0,0.03,0.02,0.5,-0.01,9.34,-0.47
14.35,0.01,0.01,0.02,0.49,-0.0,9.35,-0.75
14.37,0.04,0.0,0.02,0.49,0.0,9.35,-0.97
14.39,0.04,-0.01,0.01,0.5,0.0,9.35,-0.94
14.4,0.03,-0.0,-0.02,0.51,0.01,9.35,-0.7
14.42,0.01,0.01,-0.05,0.52,0.01,9.35,-0.43
14.44,-0.02,0.03,-0.06,0.53,0.01,9.34,-0.37
14.46,-0.05,0.03,-0.06,0.54,0.01,9.32,-0.4
14.48,-0.06,0.03,-0.05,0.55,-0.0,9.31,-0.31
14.49,-0.05,0.02,-0.03,0.55,-0.01,9.31,0.03
14.51,-0.03,0.03,-0.01,0.55,-0.01,9.3,0.47
14.53,0.0,0.04,0.01,0.54,-0.02,9.3,0.75
14.55,0.03,0.02,0.03,0.53,-0.01,9.31,0.8
14.56,0.05,0.01,0.02,0.53,-0.0,9.31,0.77
14.58,0.07,0.02,0.0,0.53,-0.0,9.32,0.88
14.6,0.08,0.03,-0.01,0.53,-0.01,9.32,1.17
14.62,0.08,0.04,-0.01,0.53,-0.01,9.32,1.38
14.64,0.07,0.05,0.0,0.54,-0.02,9.31,1.33
14.65,0.05,0.06,0.02,0.53,-0.02,9.3,1.08
14.67,0.04,0.07,0.01,0.53,-0.01,9.29,0.83
14.69,0.0,0.05,0.0,0.53,-0.01,9.29,0.77
14.71,-0.04,0.01,0.01,0.52,-0.0,9.29,0.8
14.73,-0.06,-0.03,0.01,0.52,-0.0,9.31,0.7
14.74,-0.06,-0.05,0.02,0.52,-0.0,9.32,0.35
14.76,-0.06,-0.06,0.01,0.5,-0.0,9.32,-0.07
14.78,-0.06,-0.06,0.01,0.5,-0.0,9.32,-0.36
14.8,-0.05,-0.04,0.01,0.5,0.01,9.31,-0.39
14.82,-0.04,-0.01,-0.01,0.52,0.02,9.3,-0.37
14.83,-0.05,0.01,-0.02,0.53,0.03,9.28,-0.49
14.85,-0.07,0.03,-0.0,0.54,0.03,9.27,-0.78
14.87,-0.09,0.04,-0.0,0.54,0.03,9.26,-0.98
14.89,-0.08,0.04,0.01,0.54,0.03,9.26,-0.93
14.9,-0.06,0.05,0.03,0.54,0.03,9.27,-0.67
14.92,-0.04,0.04,0.04,0.53,0.02,9.26,-0.43
14.94,-0.02,0.02,0.02,0.52,0.03,9.26,-0.37
14.96,-0.0,0.01,0.0,0.51,0.02,9.27,-0.4
14.98,0.02,0.01,0.0,0.51,0.01,9.29,-0.28
15.0,0.04,0.02,0.02,0.52,0.0,9.29,0.08
15.01,0.04,0.02,0.03,0.54,0.0,9.29,0.49
15.03,0.01,0.01,0.03,0.54,-0.0,9.29,0.77
15.05,-0.03,-0.01,0.04,0.55,-0.01,9.3,0.79
15.07,-0.05,-0.03,0.06,0.55,-0.01,9.31,0.77
15.08,-0.06,-0.03,0.08,0.56,-0.01,9.32,0.9
15.1,-0.06,-0.01,0.07,0.57,0.0,9.33,1.18
15.12,-0.06,0.01,0.04,0.58,0.01,9.33,1.39
15.14,-0.06,0.0,-0.0,0.57,0.02,9.32,1.32
15.16,-0.06,-0.0,-0.03,0.56,0.01,9.32,1.05
15.17,-0.06,-0.0,-0.05,0.54,0.0,9.33,0.82
15.19,-0.05,0.0,-0.06,0.53,0.0,9.33,0.77
15.21,-0.04,0.02,-0.07,0.54,-0.0,9.32,0.8
15.23,-0.04,0.03,-0.07,0.55,-0.0,9.31,0.68
15.25,-0.03,0.01,-0.06,0.56,-0.0,9.31,0.3
15.26,-0.03,-0.0,-0.03,0.57,-0.01,9.31,-0.11
15.28,-0.02,-0.02,-0.0,0.56,-0.01,9.31,-0.37
15.3,-0.0,-0.02,0.01,0.55,-0.02,9.31,-0.39
15.32,0.0,-0.02,-0.0,0.55,-0.01,9.32,-0.37
15.34,-0.01,-0.02,-0.01,0.54,-0.0,9.35,-0.51
15.35,-0.01,-0.01,0.0,0.53,0.0,9.37,-0.8
15.37,0.0,-0.01,0.03,0.52,-0.0,9.37,-0.99
15.39,0.02,-0.01,0.05,0.52,-0.01,9.36,-0.91
15.41,0.04,-0.0,0.04,0.52,-0.01,9.35,-0.64
15.43,0.06,-0.01,0.0,0.51,-0.01,9.34,-0.41
15.44,0.07,-0.02,-0.03,0.5,-0.01,9.34,-0.37
15.46,0.06,0.0,-0.04,0.5,-0.01,9.34,-0.4
15.48,0.06,0.03,-0.05,0.51,-0.01,9.34,-0.27
15.5,0.05,0.03,-0.05,0.53,-0.0,9.33,0.12
15.51,0.03,0.01,-0.03,0.53,0.0,9.34,0.53
15.53,0.01,0.0,-0.01,0.53,0.01,9.34,0.78
15.55,0.01,0.01,0.0,0.53,0.01,9.35,0.79
15.57,0.0,0.02,0.01,0.54,0.01,9.36,0.77
15.59,0.0,0.02,0.03,0.55,0.0,9.35,0.93
15.6,0.01,0.02,0.05,0.54,-0.01,9.34,1.22
15.62,0.01,0.02,0.06,0.54,-0.02,9.33,1.4
15.64,0.01,0.01,0.06,0.55,-0.01,9.32,1.3
15.66,0.01,0.0,0.05,0.55,-0.01,9.31,1.04
15.68,0.02,-0.01,0.04,0.53,0.01,9.3,0.8
15.69,0.04,-0.02,0.01,0.53,0.02,9.31,0.77
15.71,0.07,-0.02,-0.02,0.53,0.02,9.32,0.8
15.73,0.09,0.01,-0.05,0.55,0.03,9.33,0.65
15.75,0.08,0.04,-0.06,0.55,0.03,9.31,0.25
15.77,0.06,0.06,-0.06,0.55,0.04,9.3,-0.15
15.78,0.03,0.06,-0.06,0.55,0.04,9.28,-0.38
15.8,-0.01,0.05,-0.06,0.55,0.03,9.27,-0.39
15.82,-0.02,0.05,-0.04,0.55,0.02,9.26,-0.38
15.84,-0.01,0.05,-0.04,0.54,0.02,9.25,-0.54
15.85,0.01,0.04,-0.03,0.53,0.02,9.25,-0.83
15.87,0.01,0.03,-0.01,0.53,0.01,9.26,-1.0
15.89,0.01,0.02,0.01,0.54,-0.0,9.29,-0.89
15.91,0.01,-0.0,0.02,0.54,-0.0,9.32,-0.62
15.93,-0.0,-0.0,0.04,0.54,0.0,9.34,-0.4
15.94,-0.0,0.02,0.06,0.54,0.0,9.34,-0.37
15.96,0.0,0.04,0.07,0.53,0.01,9.34,-0.39
15.98,-0.01,0.03,0.09,0.52,0.01,9.34,-0.24
16.0,-0.02,-0.0,0.1,0.51,0.01,9.34,0.15
16.02,-0.03,-0.04,0.09,0.52,0.0,9.33,0.57
16.03,-0.02,-0.07,0.06,0.53,-0.0,9.32,0.78
16.05,-0.01,-0.08,0.01,0.53,0.0,9.31,0.78
16.07,0.0,-0.09,-0.01,0.54,0.01,9.31,0.78
16.09,0.02,-0.09,-0.01,0.54,0.01,9.31,0.96
16.11,0.02,-0.07,0.0,0.54,0.0,9.3,1.25
16.12,0.02,-0.04,0.02,0.53,-0.0,9.31,1.4
16.14,0.01,-0.02,0.03,0.52,0.0,9.31,1.27
16.16,0.02,-0.01,0.04,0.51,0.01,9.32,1.0
16.18,0.01,0.01,0.04,0.51,0.01,9.32,0.79
16.19,-0.02,0.02,0.04,0.52,0.0,9.33,0.78
16.21,-0.03,0.04,0.03,0.53,-0.0,9.33,0.79
16.23,-0.01,0.05,0.02,0.54,-0.0,9.32,0.62
16.25,0.0,0.04,0.03,0.54,-0.0,9.31,0.23
16.27,0.01,0.02,0.03,0.53,-0.0,9.31,-0.19
16.28,0.01,0.0,0.04,0.53,-0.0,9.31,-0.39
16.3,0.01,-0.0,0.05,0.54,-0.01,9.31,-0.38
16.32,0.01,0.0,0.05,0.54,-0.01,9.32,-0.38
16.34,0.02,-0.0,0.04,0.55,-0.0,9.34,-0.56
16.36,0.01,-0.0,0.04,0.55,0.01,9.34,-0.86
16.37,-0.01,0.03,0.05,0.55,0.01,9.34,-1.0
16.39,-0.03,0.05,0.05,0.55,0.01,9.34,-0.86
16.41,-0.03,0.05,0.02,0.55,0.01,9.34,-0.59
16.43,-0.02,0.04,-0.0,0.55,0.01,9.35,-0.38
16.45,-0.03,0.01,-0.01,0.55,0.01,9.35,-0.38
16.46,-0.03,-0.0,-0.01,0.55,0.02,9.35,-0.39
16.48,-0.04,0.01,-0.01,0.55,0.02,9.34,-0.21
16.5,-0.05,0.02,-0.02,0.55,0.02,9.33,0.2
16.52,-0.03,0.01,-0.01,0.55,0.02,9.32,0.61
16.54,-0.0,0.01,-0.0,0.55,0.02,9.3,0.79
16.55,0.0,0.03,0.01,0.54,0.01,9.29,0.78
16.57,0.01,0.04,0.03,0.54,-0.0,9.3,0.79
16.59,0.01,0.03,0.04,0.53,-0.02,9.32,0.97
16.61,-0.01,0.01,0.03,0.53,-0.03,9.33,1.27
16.62,-0.02,0.01,0.02,0.54,-0.03,9.34,1.4
16.64,-0.01,0.01,0.0,0.55,-0.02,9.34,1.25
16.66,0.02,0.0,-0.01,0.55,-0.01,9.32,0.97
16.68,0.02,0.01,-0.01,0.55,-0.01,9.31,0.78
16.7,0.02,0.03,0.02,0.54,-0.02,9.31,0.78
16.71,0.04,0.04,0.03,0.55,-0.02,9.32,0.79
16.73,0.07,0.03,0.03,0.55,-0.02,9.33,0.59
16.75,0.07,0.03,0.02,0.54,-0.02,9.33,0.17
16.77,0.05,0.03,0.01,0.54,-0.02,9.33,-0.22
16.79,0.01,0.02,-0.0,0.53,-0.01,9.33,-0.39
16.8,-0.02,0.0,-0.01,0.53,-0.0,9.33,-0.38
16.82,-0.03,0.01,-0.01,0.53,0.01,9.31,-0.4
16.84,-0.02,0.02,-0.0,0.52,0.01,9.29,-0.59
16.86,-0.02,0.04,0.01,0.52,0.01,9.28,-0.89
16.88,-0.02,0.04,0.03,0.52,0.01,9.27,-1.0
16.89,-0.01,0.0,0.05,0.52,0.02,9.25,-0.85
16.91,0.0,-0.02,0.04,0.52,0.02,9.25,-0.56
16.93,0.01,0.0,0.02,0.53,0.01,9.26,-0.38
16.95,0.01,0.02,0.01,0.54,0.01,9.28,-0.38
16.97,-0.01,0.03,-0.01,0.54,0.01,9.3,-0.38
16.98,-0.03,0.03,-0.02,0.54,0.01,9.31,-0.17
17.0,-0.02,0.05,-0.03,0.54,0.0,9.31,0.25
17.02,0.0,0.04,-0.04,0.55,0.0,9.3,0.62
17.04,0.02,0.03,-0.04,0.56,0.0,9.3,0.8
17.05,0.03,0.01,-0.02,0.56,0.0,9.3,0.78
17.07,0.02,0.0,-0.0,0.55,0.01,9.3,0.8
17.09,0.02,0.03,0.0,0.55,0.01,9.29,1.0
17.11,0.01,0.06,-0.0,0.55,0.0,9.29,1.3
17.13,-0.01,0.06,-0.01,0.54,-0.0,9.31,1.4
17.14,-0.06,0.05,-0.01,0.53,-0.0,9.32,1.23
17.16,-0.1,0.05,-0.0,0.52,0.01,9.32,0.94
17.18,-0.12,0.08,0.01,0.51,0.01,9.31,0.78
17.2,-0.12,0.08,-0.0,0.51,0.03,9.31,0.79
17.22,-0.1,0.06,-0.03,0.52,0.03,9.31,0.78
17.23,-0.1,0.03,-0.04,0.53,0.03,9.32,0.57
17.25,-0.1,0.01,-0.04,0.55,0.03,9.32,0.12
17.27,-0.09,0.01,-0.04,0.56,0.03,9.32,-0.24
17.29,-0.05,0.02,-0.03,0.55,0.02,9.31,-0.4
17.31,-0.02,0.03,0.0,0.54,0.01,9.31,-0.37
17.32,0.01,0.05,0.04,0.54,0.01,9.3,-0.41
17.34,-0.01,0.05,0.05,0.53,0.01,9.29,-0.62
17.36,-0.04,0.03,0.04,0.52,0.01,9.28,-0.9
17.38,-0.04,0.01,0.01,0.53,0.01,9.27,-1.0
17.4,0.0,-0.0,-0.02,0.54,0.01,9.27,-0.82
17.41,0.03,0.01,-0.05,0.54,0.01,9.28,-0.53
17.43,0.01,0.03,-0.06,0.55,0.0,9.28,-0.37
17.45,-0.02,0.03,-0.03,0.55,-0.0,9.28,-0.39
17.47,-0.04,0.02,-0.02,0.56,0.0,9.29,-0.37
17.48,-0.04,0.0,-0.01,0.56,0.0,9.29,-0.15
17.5,-0.05,-0.01,0.0,0.56,0.0,9.3,0.3
17.52,-0.04,-0.02,0.0,0.55,0.0,9.3,0.65
17.54,-0.03,-0.02,-0.01,0.56,-0.0,9.31,0.8
17.56,-0.01,-0.02,-0.01,0.56,-0.0,9.31,0.77
17.57,0.01,-0.0,-0.02,0.56,-0.01,9.31,0.81
17.59,0.03,0.01,-0.02,0.56,-0.02,9.31,1.04
17.61,0.04,0.0,-0.02,0.55,-0.02,9.31,1.31
17.63,0.05,-0.0,-0.03,0.55,-0.02,9.31,1.39
17.65,0.06,-0.01,-0.02,0.54,-0.01,9.31,1.2
17.67,0.07,-0.01,-0.0,0.54,-0.01,9.32,0.91
17.68,0.06,-0.01,0.03,0.53,-0.0,9.33,0.77
17.7,0.05,-0.01,0.06,0.53,0.0,9.33,0.79
17.72,0.05,-0.01,0.06,0.52,0.0,9.33,0.77
17.74,0.05,0.01,0.04,0.51,0.0,9.33,0.53
17.75,0.04,0.03,0.02,0.51,0.0,9.33,0.08
17.77,0.04,0.05,0.01,0.52,0.0,9.33,-0.27
17.79,0.04,0.07,-0.0,0.53,0.01,9.33,-0.4
17.81,0.04,0.09,-0.03,0.53,0.01,9.33,-0.37
17.83,0.02,0.09,-0.06,0.54,0.01,9.33,-0.42
17.84,-0.01,0.08,-0.08,0.54,0.01,9.32,-0.65
17.86,-0.02,0.04,-0.08,0.53,0.01,9.31,-0.92
17.88,-0.02,-0.0,-0.08,0.52,0.0,9.3,-0.99
17.9,-0.01,-0.02,-0.08,0.51,0.0,9.29,-0.78
17.92,-0.01,-0.02,-0.06,0.51,-0.01,9.29,-0.51
17.93,-0.01,-0.02,-0.03,0.51,-0.01,9.29,-0.37
17.95,-0.01,-0.03,0.02,0.52,-0.01,9.29,-0.39
17.97,-0.01,-0.04,0.04,0.53,0.0,9.3,-0.36
17.99,-0.02,-0.05,0.02,0.53,0.01,9.3,-0.09
18.01,-0.0,-0.04,-0.01,0.53,0.01,9.3,0.35
18.02,0.02,0.0,-0.03,0.52,0.02,9.29,0.7
18.04,0.05,0.03,-0.03,0.52,0.02,9.29,0.8
18.06,0.07,0.04,-0.02,0.52,0.02,9.29,0.77
18.08,0.08,0.04,0.0,0.52,0.02,9.3,0.83
18.1,0.07,0.04,0.01,0.52,0.03,9.32,1.08
18.11,0.05,0.03,0.0,0.52,0.02,9.35,1.33
18.13,0.03,-0.0,-0.01,0.52,0.01,9.36,1.38
18.15,0.03,-0.03,-0.02,0.52,0.0,9.37,1.17
18.17,0.03,-0.05,-0.04,0.53,0.0,9.36,0.89
18.18,0.02,-0.06,-0.04,0.53,0.0,9.36,0.77
18.2,0.01,-0.03,-0.02,0.53,0.0,9.36,0.79
18.22,0.01,0.0,-0.01,0.52,0.0,9.35,0.75
18.24,0.02,0.03,-0.02,0.51,0.01,9.33,0.47
18.26,0.04,0.05,-0.02,0.51,0.02,9.32,0.05
18.27,0.05,0.06,-0.02,0.52,0.02,9.33,-0.31
18.29,0.04,0.07,-0.02,0.52,0.02,9.35,-0.4
18.31,0.04,0.08,-0.02,0.53,0.03,9.36,-0.37
18.33,0.03,0.06,-0.02,0.53,0.03,9.36,-0.43
18.35,0.0,0.03,-0.02,0.53,0.02,9.35,-0.7
18.36,-0.03,0.01,-0.03,0.53,0.02,9.35,-0.94
18.38,-0.04,0.01,-0.02,0.53,0.03,9.34,-0.98
18.4,-0.04,0.04,-0.01,0.54,0.02,9.34,-0.75
18.42,-0.04,0.07,0.01,0.54,0.02,9.33,-0.48
18.44,-0.01,0.06,0.03,0.54,0.01,9.32,-0.37
18.45,0.02,0.04,0.03,0.53,0.01,9.31,-0.4
18.47,0.04,0.02,0.02,0.53,0.01,9.3,-0.35
18.49,0.06,0.02,-0.0,0.52,0.01,9.3,-0.04
18.51,0.08,0.01,-0.0,0.53,0.0,9.31,0.37
18.53,0.08,0.01,0.01,0.53,-0.01,9.32,0.72
18.54,0.05,0.02,0.01,0.54,-0.02,9.32,0.8
18.56,-0.01,0.01,0.01,0.54,-0.03,9.31,0.77
18.58,-0.06,-0.0,0.02,0.55,-0.05,9.31,0.84
18.6,-0.08,-0.01,0.01,0.54,-0.05,9.31,1.1
18.61,-0.06,-0.01,-0.02,0.55,-0.04,9.31,1.35
18.63,-0.04,-0.0,-0.04,0.55,-0.02,9.31,1.37
18.65,-0.02,0.02,-0.06,0.54,-0.01,9.3,1.13
18.67,-0.01,0.06,-0.09,0.54,-0.0,9.29,0.87
18.69,-0.02,0.1,-0.11,0.54,0.01,9.28,0.77
18.7,-0.04,0.11,-0.1,0.53,0.01,9.29,0.8
18.72,-0.05,0.07,-0.07,0.53,0.0,9.29,0.74
18.74,-0.03,0.02,-0.05,0.52,0.0,9.29,0.42
18.76,-0.0,-0.01,-0.01,0.52,0.0,9.3,0.0
18.78,0.02,-0.04,0.03,0.52,0.0,9.3,-0.33
18.79,0.03,-0.06,0.05,0.52,0.0,9.29,-0.4
18.81,0.02,-0.06,0.04,0.51,0.01,9.29,-0.37
18.83,-0.02,-0.04,0.02,0.51,0.01,9.28,-0.45
18.85,-0.03,0.01,-0.01,0.52,0.02,9.29,-0.72
18.87,-0.03,0.05,-0.03,0.52,0.01,9.3,-0.96
18.88,-0.03,0.07,-0.02,0.53,0.01,9.32,-0.96
18.9,-0.02,0.06,-0.01,0.53,0.0,9.32,-0.72
18.92,-0.01,0.03,-0.01,0.54,-0.01,9.32,-0.45
18.94,-0.02,-0.0,-0.0,0.56,-0.02,9.32,-0.37
18.96,-0.03,-0.03,0.01,0.56,-0.03,9.31,-0.4
18.97,-0.04,-0.02,0.01,0.56,-0.02,9.3,-0.33
18.99,-0.03,0.01,0.0,0.55,-0.01,9.29,0.0
19.01,-0.03,0.04,-0.01,0.55,-0.01,9.29,0.42
19.03,-0.04,0.04,-0.02,0.56,-0.01,9.29,0.73
19.04,-0.06,-0.0,-0.03,0.56,-0.01,9.3,0.8
19.06,-0.07,-0.04,-0.03,0.55,-0.01,9.3,0.77
19.08,-0.07,-0.06,-0.01,0.54,-0.0,9.31,0.87
19.1,-0.07,-0.04,0.02,0.53,-0.0,9.31,1.13
19.12,-0.09,-0.01,0.04,0.52,-0.0,9.33,1.37
19.13,-0.12,0.02,0.05,0.52,-0.01,9.34,1.35
19.15,-0.13,0.03,0.06,0.52,-0.0,9.35,1.12
19.17,-0.09,0.02,0.05,0.52,-0.0,9.36,0.84
19.19,-0.05,0.01,0.03,0.53,0.0,9.36,0.77
19.21,-0.03,0.0,-0.0,0.53,0.01,9.35,0.8
19.22,-0.01,-0.0,-0.02,0.54,0.0,9.34,0.72
19.24,-0.01,-0.0,-0.04,0.56,-0.0,9.32,0.37
19.26,-0.01,-0.0,-0.06,0.57,-0.01,9.3,-0.04
19.28,-0.0,-0.0,-0.06,0.56,-0.01,9.28,-0.34
19.3,0.01,0.0,-0.06,0.56,-0.01,9.28,-0.4
19.31,-0.0,0.01,-0.04,0.55,0.0,9.29,-0.37
19.33,-0.02,0.03,-0.03,0.54,0.01,9.3,-0.48
19.35,-0.04,0.04,-0.03,0.53,0.01,9.3,-0.75
19.37,-0.03,0.05,-0.03,0.53,0.01,9.31,-0.97
19.39,-0.02,0.04,-0.03,0.54,0.01,9.31,-0.94
19.4,-0.01,0.02,-0.02,0.54,0.01,9.31,-0.7
19.42,-0.02,0.0,-0.02,0.54,0.01,9.31,-0.43
19.44,-0.02,-0.0,-0.03,0.54,0.01,9.31,-0.37
19.46,0.01,-0.01,-0.05,0.53,0.02,9.32,-0.4
19.47,0.02,-0.02,-0.05,0.53,0.02,9.32,-0.31
19.49,0.0,-0.03,-0.05,0.53,0.02,9.32,0.03
19.51,-0.01,-0.03,-0.03,0.54,0.0,9.32,0.47
19.53,-0.02,-0.01,-0.03,0.55,-0.01,9.32,0.75
19.55,-0.05,0.01,-0.02,0.55,-0.03,9.3,0.79
19.56,-0.05,0.04,-0.0,0.55,-0.03,9.3,0.77
19.58,-0.04,0.06,0.01,0.55,-0.02,9.3,0.88
19.6,-0.03,0.07,-0.0,0.54,-0.01,9.31,1.17
19.62,-0.03,0.06,0.0,0.53,0.0,9.32,1.38
19.64,-0.03,0.06,0.02,0.53,-0.0,9.33,1.33
19.65,-0.01,0.06,0.02,0.53,-0.01,9.33,1.08
19.67,0.01,0.03,0.01,0.54,-0.01,9.31,0.83
19.69,0.02,-0.01,0.02,0.54,-0.01,9.29,0.77
19.71,0.01,-0.03,0.02,0.53,-0.01,9.28,0.8
19.73,-0.0,-0.06,0.03,0.53,-0.01,9.28,0.7
19.74,-0.01,-0.08,0.03,0.54,-0.01,9.29,0.35
19.76,-0.01,-0.07,0.05,0.55,0.0,9.3,-0.09
19.78,-0.02,-0.02,0.06,0.55,0.01,9.31,-0.36
19.8,-0.02,0.02,0.06,0.55,0.01,9.31,-0.39
19.82,-0.01,0.05,0.05,0.54,0.0,9.3,-0.37
19.83,0.02,0.06,0.03,0.54,-0.0,9.29,-0.5
19.85,0.05,0.09,0.0,0.54,-0.01,9.29,-0.78
19.87,0.04,0.1,-0.02,0.54,-0.01,9.29,-0.99
19.89,0.02,0.08,-0.02,0.54,-0.01,9.31,-0.92
19.91,-0.0,0.04,-0.01,0.55,-0.01,9.32,-0.65
19.92,-0.01,-0.03,0.02,0.56,-0.0,9.33,-0.43
19.94,0.0,-0.09,0.04,0.55,0.01,9.33,-0.37
19.96,0.02,-0.12,0.02,0.55,0.02,9.34,-0.4
19.98,0.01,-0.09,-0.01,0.54,0.03,9.34,-0.27
20.0,0.01,-0.03,-0.02,0.54,0.02,9.33,0.08
20.01,0.03,0.02,0.01,0.54,0.01,9.33,0.53
20.03,0.05,0.05,0.04,0.54,-0.0,9.33,0.77
20.05,0.07,0.06,0.04,0.54,-0.01,9.31,0.79
20.07,0.07,0.06,0.02,0.54,-0.01,9.31,0.77
20.08,0.05,0.03,-0.0,0.53,-0.0,9.32,0.91
20.1,0.04,-0.0,-0.02,0.52,-0.01,9.33,1.2
20.12,0.02,-0.02,-0.03,0.52,-0.01,9.34,1.39
20.14,0.01,-0.02,-0.04,0.53,-0.01,9.33,1.31
20.16,0.0,-0.0,-0.01,0.53,-0.01,9.31,1.04
20.17,-0.02,0.03,0.04,0.53,-0.01,9.3,0.82
20.19,-0.06,0.06,0.08,0.53,-0.01,9.3,0.77
20.21,-0.09,0.08,0.09,0.53,-0.01,9.3,0.8
20.23,-0.1,0.09,0.08,0.53,-0.01,9.31,0.65
20.25,-0.1,0.09,0.07,0.53,-0.02,9.31,0.3
20.26,-0.08,0.07,0.04,0.54,-0.02,9.3,-0.13
20.28,-0.04,0.04,0.01,0.55,-0.02,9.29,-0.37
20.3,0.01,0.02,-0.0,0.55,-0.02,9.3,-0.39
20.32,0.04,0.02,-0.0,0.56,-0.02,9.3,-0.37
20.34,0.04,0.02,-0.0,0.56,-0.01,9.31,-0.53
20.35,-0.0,0.03,-0.01,0.54,-0.01,9.31,-0.82
20.37,-0.04,0.03,-0.02,0.53,-0.02,9.33,-1.0
20.39,-0.04,0.03,-0.01,0.52,-0.01,9.35,-0.91
20.41,-0.02,0.03,0.03,0.51,-0.0,9.36,-0.62
20.42,-0.02,0.04,0.06,0.51,0.01,9.36,-0.41
20.44,-0.02,0.03,0.08,0.51,0.02,9.36,-0.37
20.46,-0.03,0.03,0.06,0.52,0.02,9.36,-0.4
20.48,-0.02,0.01,0.03,0.53,0.02,9.36,-0.24
20.5,-0.01,-0.02,0.01,0.54,0.02,9.35,0.12
20.51,-0.0,-0.06,0.01,0.53,0.03,9.35,0.55
20.53,-0.01,-0.07,0.0,0.53,0.04,9.35,0.78
20.55,-0.01,-0.05,-0.01,0.52,0.03,9.34,0.79
20.57,-0.01,-0.01,-0.01,0.51,0.02,9.33,0.78
20.59,-0.02,0.0,-0.01,0.51,0.0,9.32,0.94
20.6,-0.03,-0.01,-0.02,0.51,-0.01,9.31,1.22
20.62,-0.05,-0.02,-0.04,0.52,-0.01,9.31,1.4
20.64,-0.07,-0.0,-0.07,0.52,-0.01,9.31,1.3
20.66,-0.08,0.01,-0.06,0.53,-0.01,9.32,1.0
20.68,-0.09,0.01,-0.04,0.54,-0.0,9.33,0.8
20.69,-0.09,0.0,-0.01,0.54,0.0,9.34,0.78
20.71,-0.08,0.01,0.03,0.54,0.0,9.34,0.8
20.73,-0.07,0.01,0.05,0.54,0.0,9.35,0.64
20.75,-0.07,-0.02,0.04,0.54,-0.0,9.36,0.25
20.77,-0.07,-0.06,0.02,0.54,-0.01,9.36,-0.17
20.78,-0.07,-0.07,0.0,0.54,-0.01,9.36,-0.38
20.8,-0.08,-0.07,-0.01,0.54,-0.02,9.35,-0.38
20.82,-0.08,-0.06,-0.0,0.54,-0.02,9.34,-0.38
20.84,-0.08,-0.04,0.01,0.53,-0.02,9.32,-0.56
20.85,-0.07,-0.02,0.01,0.53,-0.02,9.32,-0.83
20.87,-0.06,-0.01,0.01,0.53,-0.02,9.32,-1.0
20.89,-0.05,-0.01,0.01,0.53,-0.02,9.32,-0.89
20.91,-0.03,-0.02,0.01,0.53,-0.02,9.32,-0.59
20.93,-0.03,-0.03,0.02,0.54,-0.02,9.32,-0.4
20.94,-0.04,-0.02,0.03,0.55,-0.02,9.31,-0.38
20.96,-0.06,-0.02,0.02,0.55,-0.02,9.32,-0.39
20.98,-0.04,-0.02,0.01,0.54,-0.02,9.32,-0.22
21.0,-0.01,-0.01,0.01,0.53,-0.03,9.33,0.2
21.02,0.01,-0.01,0.02,0.53,-0.02,9.33,0.59
21.04,-0.0,-0.0,0.04,0.54,-0.01,9.33,0.79
21.05,-0.0,0.01,0.05,0.54,0.0,9.33,0.78
21.07,0.0,0.01,0.06,0.53,0.01,9.32,0.78
21.09,0.0,-0.01,0.05,0.53,0.01,9.31,0.97
21.11,-0.0,-0.03,0.06,0.53,0.02,9.3,1.25
21.12,-0.02,-0.05,0.08,0.54,0.02,9.3,1.4
21.14,-0.03,-0.04,0.08,0.54,0.02,9.29,1.26
21.16,-0.03,-0.02,0.06,0.53,0.01,9.3,0.99
21.18,-0.05,0.01,0.05,0.52,0.01,9.31,0.78
21.2,-0.06,0.04,0.04,0.51,0.02,9.32,0.78
21.21,-0.07,0.06,0.03,0.51,0.02,9.33,0.79
21.23,-0.05,0.04,0.01,0.51,0.02,9.34,0.61
21.25,-0.02,0.02,-0.0,0.51,0.01,9.34,0.17
21.27,0.01,0.03,0.0,0.51,0.01,9.33,-0.21
21.29,0.02,0.05,0.01,0.52,0.0,9.3,-0.39
21.3,0.03,0.05,-0.0,0.52,-0.01,9.28,-0.38
21.32,0.03,0.03,-0.02,0.52,-0.01,9.28,-0.39
21.34,0.03,0.02,-0.03,0.51,-0.0,9.29,-0.59
21.36,0.01,0.01,-0.02,0.51,0.0,9.29,-0.87
21.38,-0.01,0.02,-0.03,0.53,0.01,9.31,-1.0
21.39,-0.05,0.04,-0.03,0.54,0.01,9.33,-0.85
21.41,-0.07,0.05,-0.04,0.55,0.0,9.34,-0.57
21.43,-0.08,0.05,-0.03,0.55,-0.0,9.36,-0.38
21.45,-0.09,0.04,-0.02,0.55,-0.0,9.36,-0.38
21.47,-0.1,0.02,-0.01,0.56,0.0,9.35,-0.38
21.48,-0.12,-0.03,0.01,0.56,0.01,9.34,-0.19
21.5,-0.11,-0.07,0.04,0.55,0.02,9.34,0.23
21.52,-0.07,-0.1,0.04,0.55,0.01,9.34,0.62
21.54,-0.02,-0.06,0.02,0.54,0.01,9.33,0.79
21.55,0.01,0.01,0.0,0.53,0.01,9.32,0.78
21.57,0.0,0.06,-0.01,0.53,0.01,9.31,0.8
21.59,-0.02,0.07,-0.02,0.52,0.01,9.31,1.0
21.61,-0.05,0.04,-0.03,0.52,-0.0,9.31,1.29
21.63,-0.07,0.01,-0.02,0.52,0.0,9.31,1.4
21.64,-0.06,-0.02,-0.0,0.52,0.01,9.33,1.23
21.66,-0.05,-0.05,0.0,0.52,0.02,9.34,0.96
21.68,-0.04,-0.08,-0.0,0.53,0.02,9.34,0.78
21.7,-0.01,-0.08,-0.01,0.53,0.01,9.32,0.78
21.72,0.03,-0.07,-0.02,0.54,-0.0,9.31,0.78
21.73,0.05,-0.06,-0.02,0.54,-0.01,9.31,0.57
21.75,0.04,-0.02,-0.01,0.54,-0.0,9.32,0.15
21.77,0.04,0.03,-0.0,0.54,0.01,9.32,-0.24
21.79,0.03,0.06,0.0,0.54,0.01,9.32,-0.4
21.81,0.01,0.06,0.02,0.53,0.02,9.33,-0.37
21.82,-0.01,0.04,0.03,0.53,0.02,9.33,-0.4
21.84,-0.03,0.01,0.03,0.51,0.02,9.34,-0.6
21.86,-0.04,-0.02,-0.0,0.51,0.02,9.34,-0.9
21.88,-0.06,-0.04,-0.02,0.51,0.02,9.34,-1.0
21.9,-0.06,-0.05,-0.02,0.52,0.01,9.33,-0.82
21.91,-0.03,-0.04,0.02,0.52,0.01,9.32,-0.54
21.93,-0.01,0.0,0.05,0.53,0.01,9.32,-0.37
21.95,-0.01,0.07,0.08,0.54,0.01,9.32,-0.39
21.97,0.01,0.12,0.07,0.54,0.01,9.31,-0.38
21.98,0.02,0.16,0.05,0.54,0.0,9.32,-0.15
22.0,0.0,0.16,0.03,0.54,0.0,9.33,0.28
22.02,-0.04,0.14,0.03,0.54,0.0,9.34,0.65
22.04,-0.06,0.1,0.05,0.53,0.01,9.34,0.8
22.06,-0.06,0.06,0.07,0.52,0.01,9.34,0.77
22.07,-0.04,0.02,0.1,0.52,-0.0,9.34,0.81
22.09,-0.02,0.01,0.11,0.52,-0.01,9.35,1.02
22.11,0.0,0.02,0.1,0.52,-0.01,9.34,1.31
22.13,0.01,0.03,0.08,0.53,-0.01,9.34,1.4
22.15,-0.02,0.01,0.05,0.54,-0.01,9.33,1.2
22.16,-0.06,-0.0,0.03,0.55,-0.01,9.32,0.93
22.18,-0.1,-0.03,0.01,0.54,-0.01,9.31,0.77
22.2,-0.11,-0.05,-0.01,0.54,-0.01,9.3,0.79
22.22,-0.09,-0.06,-0.03,0.53,-0.0,9.29,0.77
22.24,-0.06,-0.07,-0.05,0.52,0.01,9.3,0.53
22.25,-0.04,-0.08,-0.08,0.52,0.01,9.31,0.1
22.27,-0.02,-0.07,-0.07,0.53,0.01,9.32,-0.27
22.29,-0.01,-0.05,-0.04,0.53,0.01,9.32,-0.4
22.31,0.01,-0.05,0.01,0.53,0.0,9.31,-0.37
22.33,0.02,-0.06,0.03,0.53,-0.0,9.32,-0.42
22.34,0.03,-0.07,0.02,0.53,-0.0,9.32,-0.65
22.36,0.03,-0.07,0.01,0.54,-0.0,9.32,-0.92
22.38,0.02,-0.05,0.02,0.54,-0.01,9.31,-0.99
22.4,0.01,-0.04,0.04,0.54,-0.01,9.31,-0.8
22.42,0.01,-0.02,0.03,0.54,-0.01,9.31,-0.5
22.43,0.0,0.02,0.0,0.53,-0.02,9.31,-0.37
22.45,0.0,0.03,-0.02,0.53,-0.02,9.31,-0.39
22.47,0.01,0.02,-0.01,0.53,-0.02,9.31,-0.37
22.49,0.02,-0.01,0.01,0.53,-0.01,9.31,-0.09
22.5,0.04,-0.02,0.05,0.53,-0.01,9.31,0.32
22.52,0.05,-0.01,0.07,0.53,-0.02,9.31,0.68
22.54,0.04,0.01,0.07,0.53,-0.02,9.31,0.8
22.56,0.01,0.02,0.05,0.52,-0.03,9.3,0.77
22.58,-0.01,0.02,0.01,0.52,-0.02,9.3,0.83
22.59,-0.03,0.03,-0.02,0.52,-0.02,9.32,1.07
22.61,-0.05,0.05,-0.04,0.53,-0.01,9.34,1.32
22.63,-0.05,0.06,-0.04,0.53,0.0,9.35,1.38
22.65,-0.02,0.05,-0.03,0.53,0.01,9.35,1.18
22.67,0.01,0.01,-0.02,0.53,0.01,9.33,0.89
22.68,0.02,-0.04,-0.03,0.53,0.01,9.31,0.77
22.7,0.02,-0.08,-0.04,0.53,0.01,9.31,0.79
22.72,0.0,-0.1,-0.04,0.54,0.01,9.32,0.76
22.74,-0.01,-0.09,-0.04,0.54,0.02,9.33,0.49
22.76,-0.0,-0.06,-0.03,0.53,0.01,9.33,0.05
22.77,0.03,-0.05,-0.01,0.53,-0.0,9.33,-0.3
22.79,0.05,-0.04,0.02,0.53,-0.01,9.33,-0.4
22.81,0.07,-0.01,0.04,0.53,-0.02,9.33,-0.37
22.83,0.07,0.04,0.05,0.54,-0.02,9.32,-0.43
22.85,0.06,0.05,0.06,0.55,-0.02,9.31,-0.68
22.86,0.03,0.02,0.09,0.55,-0.02,9.3,-0.93
22.88,0.01,-0.01,0.1,0.55,-0.02,9.3,-0.98
22.9,0.0,-0.02,0.09,0.56,-0.01,9.31,-0.77
22.92,0.01,-0.0,0.09,0.55,0.0,9.33,-0.48
22.93,0.03,0.04,0.08,0.54,0.01,9.34,-0.37
22.95,0.01,0.07,0.07,0.53,0.01,9.33,-0.39
22.97,-0.02,0.07,0.06,0.52,0.01,9.32,-0.35
22.99,-0.05,0.07,0.06,0.52,0.01,9.32,-0.07
23.01,-0.05,0.08,0.05,0.53,0.01,9.31,0.37
23.02,-0.05,0.06,0.05,0.54,0.0,9.29,0.71
23.04,-0.04,0.06,0.05,0.54,-0.01,9.29,0.8
23.06,-0.04,0.07,0.05,0.54,-0.01,9.29,0.77
23.08,-0.02,0.08,0.05,0.53,-0.0,9.3,0.83
23.1,0.0,0.09,0.05,0.53,0.0,9.3,1.1
23.11,0.0,0.07,0.04,0.53,0.01,9.31,1.34
23.13,-0.02,0.03,0.02,0.52,0.01,9.31,1.37
23.15,-0.04,0.01,0.01,0.53,0.01,9.33,1.15
23.17,-0.06,0.0,0.01,0.53,0.01,9.35,0.87
23.19,-0.06,0.0,0.01,0.53,0.02,9.36,0.77
23.2,-0.06,0.01,0.02,0.53,0.02,9.37,0.8
23.22,-0.05,0.02,0.02,0.53,0.02,9.37,0.74
23.24,-0.06,0.03,0.01,0.53,0.02,9.37,0.44
23.26,-0.05,0.04,0.0,0.53,0.02,9.36,0.0
23.28,-0.03,0.06,-0.0,0.53,0.02,9.35,-0.32
23.29,-0.01,0.05,0.01,0.53,0.03,9.34,-0.4
23.31,0.02,0.02,0.01,0.53,0.04,9.33,-0.37
23.33,0.04,0.0,0.02,0.54,0.04,9.32,-0.44
23.35,0.03,0.0,0.02,0.55,0.03,9.32,-0.72
23.36,0.01,0.02,0.01,0.57,0.02,9.34,-0.95
23.38,0.01,0.05,0.0,0.58,0.01,9.34,-0.96
23.4,0.01,0.04,-0.02,0.58,0.0,9.34,-0.73
23.42,-0.0,0.0,-0.05,0.57,0.01,9.33,-0.47
23.44,-0.05,-0.03,-0.07,0.56,0.01,9.32,-0.37
23.45,-0.09,-0.03,-0.07,0.54,0.01,9.31,-0.4
23.47,-0.09,-0.01,-0.07,0.53,-0.01,9.3,-0.33
23.49,-0.09,0.02,-0.06,0.53,-0.02,9.3,-0.02
23.51,-0.11,0.05,-0.07,0.52,-0.02,9.31,0.4
23.53,-0.13,0.06,-0.08,0.52,-0.02,9.32,0.73
23.54,-0.12,0.06,-0.08,0.52,-0.02,9.33,0.8
23.56,-0.09,0.04,-0.09,0.52,-0.01,9.34,0.77
23.58,-0.04,0.03,-0.1,0.52,-0.01,9.35,0.87
23.6,-0.0,0.03,-0.08,0.52,-0.01,9.35,1.13
23.62,0.01,0.03,-0.05,0.53,-0.0,9.34,1.37
23.63,0.01,0.02,-0.02,0.54,0.0,9.34,1.36
23.65,0.02,0.03,0.0,0.55,0.0,9.35,1.1
23.67,0.04,0.03,0.01,0.54,0.0,9.36,0.85
23.69,0.06,0.0,0.0,0.54,-0.01,9.36,0.77
23.71,0.07,-0.04,-0.01,0.54,-0.02,9.34,0.8
23.72,0.06,-0.06,-0.01,0.54,-0.02,9.33,0.71
23.74,0.03,-0.06,0.01,0.54,-0.02,9.32,0.4
23.76,0.01,-0.02,0.02,0.54,-0.01,9.3,-0.04
23.78,-0.01,0.03,0.01,0.54,-0.01,9.29,-0.34
23.8,-0.02,0.06,-0.01,0.53,-0.0,9.29,-0.4
23.81,-0.03,0.06,-0.03,0.53,-0.0,9.28,-0.37
23.83,-0.04,0.04,-0.03,0.53,-0.0,9.28,-0.48
23.85,-0.05,0.01,-0.01,0.53,-0.01,9.3,-0.73
23.87,-0.05,-0.03,0.02,0.53,-0.01,9.32,-0.98
23.88,-0.06,-0.05,0.05,0.53,-0.01,9.33,-0.95
23.9,-0.06,-0.04,0.07,0.53,-0.0,9.33,-0.68
23.92,-0.05,-0.03,0.06,0.53,0.01,9.33,-0.44
23.94,-0.04,-0.03,0.03,0.53,0.01,9.33,-0.37
23.96,-0.03,-0.04,0.01,0.53,0.0,9.34,-0.4
23.97,-0.03,-0.04,0.02,0.53,-0.0,9.34,-0.31
23.99,-0.03,-0.03,0.04,0.52,-0.01,9.33,0.03
24.01,-0.01,-0.03,0.04,0.52,-0.0,9.32,0.47
24.03,0.01,-0.03,0.02,0.52,0.01,9.31,0.75
24.05,0.05,-0.04,0.01,0.51,0.02,9.3,0.79
24.06,0.07,-0.03,0.0,0.5,0.03,9.3,0.77
24.08,0.08,-0.03,-0.02,0.5,0.03,9.31,0.89
24.1,0.07,-0.02,-0.04,0.51,0.02,9.32,1.15
24.12,0.05,-0.01,-0.04,0.52,0.01,9.33,1.38
24.14,0.03,-0.0,-0.03,0.52,0.0,9.34,1.34
24.15,-0.0,-0.0,-0.02,0.53,-0.0,9.35,1.07
24.17,-0.03,0.0,-0.03,0.54,-0.0,9.36,0.83
24.19,-0.05,-0.0,-0.03,0.54,-0.0,9.36,0.77
24.21,-0.08,-0.01,-0.0,0.54,0.0,9.35,0.8
24.23,-0.11,-0.02,0.03,0.54,0.01,9.35,0.7
24.24,-0.13,-0.04,0.04,0.54,0.02,9.35,0.35
24.26,-0.13,-0.03,0.04,0.54,0.03,9.35,-0.09
24.28,-0.1,0.01,0.05,0.54,0.03,9.34,-0.36
24.3,-0.06,0.05,0.06,0.53,0.02,9.34,-0.39
24.31,-0.02,0.06,0.07,0.52,0.01,9.33,-0.37
24.33,0.01,0.05,0.07,0.51,0.0,9.33,-0.5
24.35,0.0,0.06,0.06,0.51,-0.0,9.33,-0.77
24.37,-0.01,0.06,0.05,0.51,-0.02,9.32,-0.99
24.39,-0.04,0.05,0.05,0.52,-0.03,9.33,-0.93
24.41,-0.06,0.06,0.05,0.52,-0.02,9.33,-0.65
24.42,-0.08,0.09,0.05,0.53,-0.01,9.32,-0.43
24.44,-0.08,0.1,0.05,0.53,-0.0,9.31,-0.37
24.46,-0.06,0.07,0.04,0.53,0.01,9.31,-0.4
24.48,-0.06,0.04,0.0,0.54,0.01,9.32,-0.28
24.5,-0.07,0.0,-0.02,0.54,0.02,9.33,0.1
24.51,-0.06,-0.03,-0.03,0.54,0.02,9.33,0.51
24.53,-0.03,-0.05,-0.05,0.54,0.01,9.34,0.77
24.55,-0.01,-0.05,-0.04,0.54,0.0,9.33,0.79
24.57,0.0,-0.05,-0.02,0.55,-0.0,9.33,0.77
24.58,-0.01,-0.04,0.01,0.55,-0.01,9.32,0.91
24.6,-0.03,-0.04,0.0,0.56,-0.02,9.32,1.2
24.62,-0.05,-0.02,-0.02,0.55,-0.02,9.33,1.39
24.64,-0.05,0.0,-0.03,0.55,-0.01,9.34,1.31
24.66,-0.05,0.03,-0.02,0.55,-0.0,9.35,1.05
24.67,-0.05,0.05,0.0,0.55,0.0,9.34,0.81
24.69,-0.07,0.05,0.01,0.55,0.0,9.32,0.77
24.71,-0.08,0.06,0.01,0.55,0.0,9.31,0.8
24.73,-0.07,0.07,-0.0,0.55,0.0,9.3,0.67
24.75,-0.03,0.09,-0.01,0.55,-0.01,9.29,0.28
24.76,-0.01,0.09,-0.01,0.54,-0.01,9.28,-0.13
24.78,-0.0,0.08,-0.0,0.53,-0.01,9.27,-0.37
24.8,0.01,0.07,0.0,0.53,-0.01,9.28,-0.39
24.82,0.03,0.03,-0.02,0.53,-0.01,9.3,-0.37
24.84,0.03,-0.01,-0.04,0.54,-0.01,9.31,-0.53
24.85,0.01,-0.02,-0.05,0.54,-0.0,9.33,-0.82
24.87,0.02,-0.01,-0.05,0.54,0.0,9.33,-0.99
24.89,0.04,0.0,-0.05,0.53,0.0,9.33,-0.9
24.91,0.07,-0.0,-0.04,0.53,0.0,9.33,-0.64
24.93,0.08,-0.01,-0.02,0.53,-0.0,9.33,-0.4
24.94,0.08,-0.01,-0.01,0.53,-0.01,9.33,-0.37
24.96,0.06,0.01,-0.01,0.53,-0.01,9.31,-0.4
24.98,0.02,0.04,0.0,0.53,-0.01,9.29,-0.25
25.0,-0.02,0.07,0.02,0.53,-0.01,9.28,0.12
25.01,-0.03,0.07,0.02,0.53,0.0,9.27,0.55
25.03,-0.03,0.05,0.03,0.52,0.01,9.27,0.78
25.05,-0.02,0.04,0.05,0.51,0.0,9.29,0.79
25.07,-0.01,0.01,0.07,0.51,-0.01,9.31,0.78
25.09,0.01,-0.04,0.07,0.51,-0.02,9.33,0.93
25.1,0.03,-0.07,0.08,0.52,-0.02,9.33,1.23
25.12,0.04,-0.06,0.07,0.53,-0.02,9.32,1.4
25.14,0.05,-0.02,0.05,0.53,-0.03,9.31,1.29
25.16,0.04,0.0,0.03,0.53,-0.02,9.3,1.02
25.18,0.02,0.0,0.02,0.53,-0.02,9.3,0.8
25.19,0.02,-0.01,0.01,0.53,-0.02,9.32,0.77
25.21,0.03,-0.03,0.01,0.53,-0.02,9.35,0.8
25.23,0.02,-0.03,0.04,0.53,-0.01,9.35,0.64
25.25,-0.01,-0.0,0.06,0.53,0.01,9.35,0.25
25.27,-0.04,0.02,0.07,0.53,0.02,9.34,-0.17
25.28,-0.08,0.02,0.04,0.54,0.02,9.32,-0.38
25.3,-0.09,0.01,-0.0,0.55,0.02,9.32,-0.38
25.32,-0.08,0.03,-0.05,0.55,0.02,9.32,-0.38
25.34,-0.05,0.07,-0.07,0.54,0.02,9.34,-0.54
25.36,-0.02,0.09,-0.07,0.54,0.02,9.35,-0.85
25.37,0.02,0.07,-0.05,0.54,0.02,9.35,-1.0
25.39,0.05,0.05,-0.03,0.54,0.02,9.35,-0.87
25.41,0.05,0.02,-0.03,0.54,0.01,9.34,-0.6
25.43,0.03,-0.0,-0.02,0.54,-0.01,9.31,-0.4
25.44,-0.0,-0.03,-0.02,0.53,-0.03,9.29,-0.38
25.46,-0.03,-0.03,-0.02,0.53,-0.03,9.29,-0.39
25.48,-0.03,-0.01,-0.01,0.52,-0.03,9.3,-0.22
25.5,-0.03,-0.0,0.0,0.51,-0.02,9.31,0.17
25.52,-0.04,-0.01,0.01,0.5,-0.01,9.31,0.59
25.53,-0.03,-0.02,0.01,0.51,-0.01,9.3,0.79
25.55,-0.01,-0.01,0.01,0.51,-0.0,9.29,0.78
25.57,0.01,0.0,-0.01,0.52,0.0,9.29,0.78
25.59,0.02,0.02,-0.03,0.53,0.01,9.3,0.96
25.61,-0.01,0.03,-0.02,0.53,0.01,9.32,1.26
25.62,-0.04,0.04,0.01,0.54,0.01,9.32,1.4
25.64,-0.04,0.01,0.02,0.54,0.0,9.31,1.26
25.66,-0.02,-0.02,0.03,0.54,-0.01,9.29,0.99
25.68,0.0,-0.06,0.04,0.54,-0.02,9.28,0.79
25.7,0.01,-0.09,0.04,0.54,-0.02,9.28,0.78
25.71,0.0,-0.1,0.02,0.55,-0.01,9.28,0.79
25.73,-0.01,-0.08,0.0,0.55,-0.0,9.28,0.59
25.75,-0.02,-0.03,-0.01,0.55,0.0,9.29,0.2
25.77,-0.02,0.03,-0.04,0.54,0.0,9.3,-0.19
25.79,-0.01,0.09,-0.05,0.54,0.0,9.31,-0.39
25.8,0.01,0.11,-0.06,0.54,0.0,9.32,-0.38
25.82,0.01,0.09,-0.05,0.54,0.01,9.33,-0.39
25.84,0.01,0.05,-0.06,0.54,0.0,9.34,-0.57
25.86,0.02,0.04,-0.05,0.54,0.0,9.35,-0.87
25.87,0.01,0.03,-0.04,0.54,0.0,9.35,-1.0
25.89,-0.01,0.02,-0.04,0.55,0.0,9.35,-0.86
25.91,-0.04,0.01,-0.04,0.55,-0.0,9.34,-0.56
25.93,-0.06,0.01,-0.05,0.54,-0.01,9.34,-0.38
25.95,-0.05,0.03,-0.05,0.53,-0.01,9.33,-0.38
25.96,-0.03,0.04,-0.06,0.53,-0.01,9.32,-0.39
25.98,-0.02,0.03,-0.07,0.54,-0.01,9.31,-0.17
26.0,-0.02,0.01,-0.06,0.54,-0.01,9.3,0.23
26.02,-0.01,-0.01,-0.02,0.54,-0.01,9.3,0.62
26.04,0.0,-0.02,0.02,0.54,-0.0,9.31,0.79
26.05,0.04,-0.04,0.05,0.55,-0.0,9.32,0.78
26.07,0.06,-0.03,0.05,0.56,0.0,9.33,0.8
26.09,0.05,-0.0,0.04,0.57,0.0,9.33,1.0
26.11,0.01,0.03,0.03,0.58,0.0,9.33,1.27
26.13,-0.04,0.05,0.02,0.57,0.0,9.32,1.4
26.14,-0.08,0.08,0.02,0.57,0.0,9.31,1.25
26.16,-0.09,0.08,0.03,0.56,0.01,9.3,0.94
26.18,-0.07,0.08,0.03,0.55,0.01,9.31,0.78
26.2,-0.05,0.08,0.02,0.55,0.01,9.33,0.79
26.22,-0.03,0.07,-0.0,0.54,0.01,9.34,0.78
26.23,-0.01,0.06,-0.01,0.53,0.01,9.34,0.57
26.25,0.01,0.07,-0.01,0.52,0.01,9.33,0.15
26.27,0.02,0.07,0.0,0.52,-0.0,9.31,-0.24
26.29,0.02,0.07,0.01,0.51,-0.01,9.29,-0.4
26.31,0.01,0.04,0.01,0.5,-0.02,9.29,-0.37
26.32,-0.01,0.02,0.01,0.5,-0.02,9.3,-0.4
26.34,-0.04,0.03,0.0,0.51,-0.01,9.32,-0.62
26.36,-0.07,0.05,-0.01,0.52,0.01,9.34,-0.89
26.38,-0.09,0.05,-0.02,0.53,0.01,9.35,-1.0
26.39,-0.09,0.04,-0.01,0.54,0.01,9.35,-0.83
26.41,-0.05,0.04,0.0,0.55,0.01,9.33,-0.53
26.43,-0.01,0.04,0.02,0.55,0.01,9.32,-0.38
26.45,-0.01,0.04,0.04,0.55,0.0,9.31,-0.39
26.47,-0.02,0.03,0.04,0.55,-0.0,9.3,-0.38
26.48,-0.04,0.03,0.03,0.55,-0.0,9.31,-0.15
26.5,-0.06,0.03,-0.0,0.55,0.0,9.31,0.28
26.52,-0.08,0.02,-0.05,0.55,0.01,9.32,0.65
26.54,-0.1,0.01,-0.08,0.54,0.01,9.31,0.8
26.56,-0.09,0.01,-0.07,0.53,0.0,9.3,0.77
26.57,-0.07,0.02,-0.07,0.53,-0.0,9.31,0.8
26.59,-0.06,0.02,-0.06,0.52,-0.01,9.32,1.04
26.61,-0.06,0.02,-0.04,0.52,-0.01,9.32,1.3
26.63,-0.07,0.01,-0.01,0.52,-0.01,9.31,1.39
26.65,-0.07,0.01,0.02,0.52,0.01,9.3,1.22
26.66,-0.06,0.02,0.03,0.52,0.03,9.31,0.93
26.68,-0.05,0.04,0.03,0.53,0.04,9.31,0.77
26.7,-0.04,0.04,0.03,0.53,0.04,9.32,0.79
26.72,-0.03,0.04,0.02,0.54,0.03,9.33,0.77
26.74,-0.03,0.03,-0.01,0.55,0.02,9.34,0.53
26.75,-0.02,0.01,-0.04,0.56,0.0,9.34,0.1
26.77,-0.02,-0.0,-0.05,0.56,-0.01,9.34,-0.27
26.79,-0.02,-0.01,-0.06,0.55,-0.01,9.33,-0.4
26.81,-0.02,-0.03,-0.07,0.54,-0.01,9.33,-0.37
26.82,-0.04,-0.05,-0.06,0.54,-0.01,9.33,-0.41
26.84,-0.07,-0.06,-0.05,0.53,-0.0,9.33,-0.65
26.86,-0.08,-0.05,-0.04,0.53,0.01,9.32,-0.91
26.88,-0.06,-0.03,-0.05,0.54,0.02,9.32,-0.99
26.9,-0.03,-0.06,-0.05,0.54,0.03,9.32,-0.8
26.92,-0.03,-0.1,-0.04,0.54,0.04,9.32,-0.51
26.93,-0.03,-0.09,-0.01,0.54,0.03,9.32,-0.37
26.95,-0.03,-0.05,0.02,0.54,0.02,9.32,-0.39
26.97,-0.02,0.01,0.04,0.54,0.01,9.34,-0.36
26.99,-0.03,0.04,0.04,0.54,0.0,9.35,-0.11
27.0,-0.04,0.05,0.03,0.54,-0.0,9.35,0.32
27.02,-0.04,0.04,0.03,0.54,-0.0,9.33,0.68
27.04,-0.04,0.03,0.01,0.54,0.0,9.32,0.8
27.06,-0.05,0.02,-0.01,0.54,0.01,9.31,0.77
27.08,-0.05,-0.0,-0.02,0.53,0.02,9.3,0.83
27.09,-0.05,-0.04,-0.02,0.53,0.02,9.32,1.07
27.11,-0.05,-0.06,-0.02,0.53,0.02,9.33,1.33
27.13,-0.05,-0.03,-0.03,0.53,0.01,9.33,1.39
27.15,-0.04,-0.01,-0.03,0.52,0.01,9.32,1.17
27.17,-0.05,0.0,-0.03,0.53,0.01,9.32,0.9
27.18,-0.05,-0.01,-0.03,0.54,0.02,9.31,0.77
27.2,-0.02,-0.01,-0.02,0.54,0.01,9.3,0.79
27.22,0.01,-0.01,-0.03,0.54,0.01,9.28,0.76
27.24,0.04,-0.0,-0.05,0.54,-0.01,9.27,0.49
27.26,0.06,0.0,-0.06,0.54,-0.02,9.28,0.05
27.27,0.06,0.0,-0.06,0.53,-0.03,9.3,-0.3
27.29,0.05,-0.01,-0.04,0.52,-0.02,9.31,-0.4
27.31,0.03,-0.05,-0.02,0.52,-0.01,9.32,-0.37
27.33,0.01,-0.1,-0.01,0.52,-0.0,9.34,-0.43
27.34,0.01,-0.12,-0.01,0.52,-0.0,9.35,-0.67
27.36,0.01,-0.11,-0.0,0.52,0.0,9.36,-0.94
27.38,0.01,-0.08,0.01,0.53,0.01,9.37,-0.98
27.4,0.01,-0.05,0.01,0.53,0.01,9.35,-0.75
27.42,0.02,-0.03,0.01,0.54,0.01,9.34,-0.49
27.44,0.02,-0.02,0.0,0.54,0.01,9.32,-0.37
27.45,0.03,-0.02,0.0,0.53,0.0,9.31,-0.39
27.47,0.05,-0.02,0.0,0.52,0.0,9.32,-0.35
27.49,0.05,-0.02,-0.02,0.52,-0.0,9.33,-0.07
27.51,0.02,-0.02,-0.03,0.52,0.0,9.33,0.37
27.52,-0.03,-0.02,-0.02,0.52,-0.0,9.33,0.71
27.54,-0.08,-0.0,-0.0,0.52,-0.0,9.33,0.8
27.56,-0.1,0.02,0.01,0.52,0.0,9.33,0.77
27.58,-0.08,0.06,0.01,0.52,0.0,9.33,0.84
27.6,-0.08,0.09,0.01,0.52,0.0,9.33,1.08
27.61,-0.1,0.11,0.01,0.52,-0.0,9.32,1.35
27.63,-0.11,0.11,-0.0,0.51,-0.01,9.32,1.38
27.65,-0.09,0.11,-0.02,0.51,-0.02,9.3,1.13
27.67,-0.05,0.09,-0.05,0.52,-0.02,9.3,0.88
27.69,-0.02,0.05,-0.04,0.52,-0.01,9.29,0.77
27.7,0.0,0.02,-0.03,0.53,-0.0,9.3,0.8
27.72,0.02,0.01,-0.02,0.53,0.01,9.33,0.74
27.74,0.02,0.01,-0.02,0.52,0.01,9.34,0.44
27.76,-0.0,0.01,-0.02,0.53,0.01,9.34,0.0
27.78,-0.01,-0.01,-0.01,0.53,0.0,9.34,-0.32
27.79,-0.01,-0.02,-0.01,0.55,-0.0,9.34,-0.4
27.81,-0.03,-0.02,-0.01,0.56,-0.01,9.32,-0.37
27.83,-0.07,-0.01,-0.01,0.56,-0.0,9.3,-0.45
27.85,-0.1,0.0,-0.01,0.55,0.0,9.29,-0.7
27.87,-0.12,0.0,-0.02,0.53,0.01,9.29,-0.96
27.88,-0.1,-0.01,-0.04,0.52,0.0,9.3,-0.96
27.9,-0.08,-0.01,-0.05,0.52,0.01,9.32,-0.73
27.92,-0.06,0.0,-0.05,0.53,0.02,9.32,-0.45
27.94,-0.04,0.01,-0.04,0.53,0.03,9.31,-0.37
27.96,-0.04,0.01,-0.03,0.53,0.03,9.3,-0.4
27.97,-0.03,0.01,-0.03,0.53,0.03,9.31,-0.33
27.99,-0.02,0.02,-0.02,0.53,0.03,9.32,0.0
28.01,-0.02,0.02,-0.01,0.53,0.03,9.32,0.42
28.03,-0.02,0.02,-0.01,0.54,0.03,9.3,0.73
28.04,-0.03,0.01,-0.0,0.55,0.02,9.3,0.8
28.06,-0.06,-0.02,-0.0,0.55,0.01,9.3,0.77
28.08,-0.08,-0.03,0.0,0.54,0.01,9.3,0.87
28.1,-0.07,-0.04,0.01,0.54,0.01,9.3,1.13
28.12,-0.05,-0.03,0.02,0.53,0.01,9.29,1.36
28.13,-0.03,-0.02,0.02,0.53,0.01,9.29,1.35
28.15,-0.03,-0.0,0.01,0.53,0.01,9.29,1.12
28.17,-0.03,0.01,-0.01,0.54,0.01,9.29,0.84
28.19,-0.02,-0.0,-0.02,0.54,0.01,9.29,0.77
28.21,-0.02,-0.01,-0.04,0.54,0.01,9.29,0.8
28.22,-0.02,-0.01,-0.04,0.53,0.01,9.31,0.72
28.24,-0.03,0.0,-0.03,0.52,0.0,9.32,0.4
28.26,-0.04,0.01,-0.01,0.52,0.0,9.34,-0.04
28.28,-0.03,0.02,0.01,0.52,0.01,9.35,-0.34
28.3,-0.02,0.03,0.02,0.53,0.01,9.35,-0.4
28.31,-0.01,0.03,0.02,0.53,0.02,9.35,-0.37
28.33,-0.03,0.02,0.02,0.54,0.02,9.35,-0.48
28.35,-0.04,0.01,0.01,0.54,0.01,9.34,-0.75
28.37,-0.05,0.0,0.01,0.54,-0.0,9.32,-0.97
28.39,-0.04,-0.01,0.01,0.54,-0.01,9.31,-0.94
28.4,-0.02,-0.02,0.02,0.54,-0.0,9.31,-0.7
28.42,0.0,-0.01,0.02,0.54,0.0,9.32,-0.43
28.44,0.01,0.03,0.01,0.54,0.01,9.33,-0.37
28.46,0.0,0.06,0.01,0.53,0.01,9.33,-0.4
28.47,-0.0,0.06,0.01,0.54,0.01,9.33,-0.31
28.49,-0.01,0.04,0.03,0.54,0.01,9.32,0.03
28.51,-0.02,0.02,0.03,0.55,-0.0,9.31,0.47
28.53,-0.04,-0.01,0.03,0.55,-0.01,9.31,0.75
28.55,-0.05,-0.03,0.03,0.55,-0.02,9.32,0.79
28.56,-0.03,-0.04,0.03,0.55,-0.02,9.35,0.77
28.58,0.02,-0.05,0.02,0.54,-0.02,9.36,0.88
28.6,0.07,-0.05,0.01,0.53,-0.01,9.36,1.17
28.62,0.12,-0.05,0.03,0.53,-0.01,9.35,1.38
28.64,0.12,-0.05,0.07,0.52,-0.0,9.35,1.33
28.65,0.1,-0.05,0.1,0.51,-0.0,9.34,1.08
28.67,0.05,-0.03,0.11,0.51,-0.0,9.33,0.83
28.69,0.02,0.02,0.1,0.51,0.0,9.33,0.77
28.71,0.0,0.06,0.07,0.52,0.0,9.34,0.8
28.73,-0.0,0.08,0.06,0.52,0.0,9.34,0.7
28.74,0.0,0.09,0.08,0.53,-0.0,9.34,0.35
28.76,0.01,0.08,0.11,0.53,0.01,9.33,-0.09
28.78,0.02,0.08,0.11,0.54,0.02,9.31,-0.36
28.8,0.02,0.09,0.1,0.54,0.02,9.3,-0.39
28.82,0.03,0.09,0.08,0.54,0.02,9.3,-0.37
28.83,0.05,0.08,0.04,0.54,0.02,9.29,-0.49
28.85,0.04,0.06,0.01,0.54,0.01,9.3,-0.78
28.87,0.02,0.05,-0.01,0.54,0.0,9.31,-0.98
28.89,-0.01,0.05,-0.02,0.54,-0.01,9.31,-0.92
28.9,-0.03,0.05,-0.04,0.54,-0.01,9.31,-0.67
28.92,-0.01,0.04,-0.07,0.53,-0.01,9.32,-0.43
28.94,0.01,0.03,-0.08,0.53,-0.01,9.33,-0.37
28.96,-0.01,0.02,-0.08,0.53,-0.02,9.31,-0.4
28.98,-0.04,-0.01,-0.08,0.54,-0.03,9.29,-0.27
29.0,-0.05,-0.04,-0.07,0.54,-0.03,9.27,0.08
29.01,-0.06,-0.08,-0.06,0.54,-0.02,9.26,0.53
29.03,-0.08,-0.1,-0.06,0.53,-0.0,9.25,0.77
29.05,-0.08,-0.11,-0.07,0.52,0.02,9.26,0.79
29.07,-0.08,-0.09,-0.08,0.51,0.03,9.28,0.77
29.08,-0.07,-0.06,-0.09,0.51,0.02,9.29,0.91
29.1,-0.05,-0.04,-0.09,0.52,0.02,9.31,1.2
29.12,-0.03,-0.03,-0.06,0.52,0.02,9.33,1.39
29.14,-0.01,-0.02,-0.04,0.53,0.02,9.33,1.32
29.16,0.01,-0.0,-0.01,0.54,0.02,9.32,1.04
29.17,0.02,0.02,-0.0,0.54,0.02,9.3,0.82
29.19,0.03,0.05,-0.01,0.53,0.02,9.3,0.77
29.21,0.03,0.07,-0.02,0.53,0.02,9.31,0.8
29.23,0.03,0.08,-0.02,0.53,0.01,9.32,0.65
29.25,0.02,0.07,-0.03,0.53,0.01,9.32,0.3
29.26,0.01,0.06,-0.05,0.54,0.0,9.32,-0.13
29.28,0.01,0.03,-0.08,0.54,-0.0,9.33,-0.37
29.3,0.01,-0.02,-0.08,0.53,-0.0,9.34,-0.39
29.32,-0.01,-0.05,-0.06,0.52,-0.01,9.35,-0.37
29.34,-0.02,-0.05,-0.03,0.51,-0.01,9.35,-0.53
29.35,-0.03,-0.05,0.0,0.51,-0.0,9.35,-0.8
29.37,-0.03,-0.05,0.03,0.51,0.0,9.35,-1.0
29.39,-0.04,-0.04,0.03,0.51,0.01,9.34,-0.91
29.41,-0.04,-0.01,0.01,0.51,0.01,9.32,-0.62
29.42,-0.03,-0.01,-0.02,0.51,0.0,9.32,-0.41
29.44,-0.01,-0.03,-0.04,0.52,-0.01,9.31,-0.37
29.46,-0.0,-0.04,-0.07,0.52,-0.01,9.3,-0.4
29.48,-0.01,-0.03,-0.08,0.52,-0.02,9.31,-0.25
29.5,-0.03,-0.02,-0.06,0.53,-0.01,9.31,0.12
29.51,-0.04,-0.03,-0.02,0.55,-0.0,9.31,0.55
29.53,-0.01,-0.06,0.01,0.56,0.0,9.31,0.78
29.55,0.02,-0.07,0.02,0.56,-0.0,9.33,0.79
29.57,0.07,-0.08,0.01,0.55,-0.0,9.35,0.78
29.59,0.09,-0.08,0.01,0.54,0.0,9.35,0.94
29.6,0.09,-0.06,0.01,0.54,0.01,9.35,1.22
29.62,0.07,-0.01,0.0,0.55,0.01,9.34,1.4
29.64,0.04,0.03,-0.01,0.55,0.02,9.33,1.3
29.66,0.01,0.06,-0.01,0.56,0.02,9.34,1.0
29.68,-0.03,0.06,-0.01,0.56,0.03,9.34,0.8
29.69,-0.05,0.05,-0.01,0.56,0.03,9.34,0.77
29.71,-0.06,0.03,-0.0,0.55,0.01,9.33,0.79
29.73,-0.07,0.01,0.01,0.54,0.0,9.31,0.64
29.75,-0.07,0.01,0.01,0.52,-0.01,9.3,0.23
29.77,-0.08,0.02,-0.02,0.51,-0.01,9.3,-0.17
29.78,-0.08,0.02,-0.03,0.51,-0.01,9.29,-0.39
29.8,-0.1,0.01,-0.02,0.52,-0.01,9.28,-0.38
29.82,-0.1,-0.0,-0.01,0.53,-0.0,9.28,-0.38
29.84,-0.1,-0.01,-0.01,0.54,0.0,9.28,-0.56
29.86,-0.07,0.01,-0.02,0.55,0.01,9.29,-0.85
29.87,-0.03,0.04,-0.03,0.55,0.03,9.31,-1.0
29.89,-0.01,0.06,-0.04,0.55,0.03,9.32,-0.87
29.91,-0.01,0.07,-0.05,0.53,0.03,9.33,-0.59
29.93,-0.02,0.09,-0.05,0.52,0.02,9.34,-0.39
29.94,-0.03,0.09,-0.04,0.52,0.01,9.33,-0.38
29.96,-0.05,0.07,-0.03,0.51,-0.0,9.32,-0.39
29.98,-0.06,0.05,-0.02,0.51,-0.01,9.32,-0.22
30.0,-0.06,0.03,-0.01,0.51,-0.0,9.31,0.2
30.02,-0.06,0.01,-0.01,0.51,0.0,9.31,0.59
30.03,-0.05,-0.0,-0.03,0.52,-0.0,9.3,0.79
30.05,-0.07,-0.02,-0.02,0.54,-0.0,9.31,0.78
30.07,-0.09,-0.02,-0.01,0.54,-0.0,9.33,0.78
30.09,-0.09,-0.01,-0.01,0.55,-0.0,9.33,0.97
30.11,-0.08,-0.01,-0.0,0.55,-0.01,9.33,1.26
30.12,-0.06,-0.01,0.01,0.54,-0.01,9.32,1.4
30.14,-0.03,-0.01,0.03,0.53,0.0,9.31,1.26
30.16,-0.01,-0.03,0.05,0.52,0.01,9.31,0.99
30.18,0.01,-0.05,0.05,0.52,0.01,9.32,0.78
30.2,0.03,-0.04,0.03,0.51,0.01,9.33,0.78
30.21,0.05,-0.02,0.01,0.51,-0.01,9.34,0.79
30.23,0.06,-0.02,-0.01,0.51,-0.02,9.34,0.61
30.25,0.07,-0.03,-0.02,0.51,-0.02,9.34,0.17
30.27,0.05,-0.02,-0.02,0.53,-0.02,9.33,-0.21
30.29,0.02,0.02,-0.01,0.54,-0.02,9.33,-0.39
30.3,-0.03,0.05,-0.01,0.55,-0.01,9.32,-0.38
30.32,-0.07,0.06,-0.02,0.54,-0.0,9.32,-0.39
30.34,-0.09,0.08,-0.03,0.54,0.0,9.32,-0.59
30.36,-0.09,0.1,-0.03,0.54,0.0,9.32,-0.87
30.37,-0.09,0.11,-0.03,0.54,0.0,9.32,-1.0
30.39,-0.08,0.1,-0.02,0.54,0.01,9.32,-0.85
30.41,-0.08,0.1,-0.0,0.53,0.02,9.31,-0.56
30.43,-0.08,0.08,0.0,0.53,0.02,9.3,-0.38
30.45,-0.06,0.05,-0.03,0.53,0.02,9.29,-0.38
30.47,-0.04,0.01,-0.05,0.53,0.02,9.29,-0.38
30.48,-0.02,-0.01,-0.04,0.53,0.01,9.3,-0.17
30.5,-0.01,-0.04,-0.04,0.53,0.01,9.31,0.23
30.52,0.01,-0.05,-0.03,0.53,0.01,9.33,0.64
30.54,0.04,-0.05,-0.03,0.52,0.01,9.34,0.79
30.56,0.05,-0.05,-0.04,0.52,0.0,9.33,0.77
30.57,0.04,-0.05,-0.05,0.52,0.0,9.32,0.8
30.59,0.02,-0.06,-0.06,0.52,-0.0,9.3,1.02
30.61,0.01,-0.05,-0.06,0.52,-0.01,9.3,1.29
30.63,0.01,0.02,-0.04,0.53,-0.01,9.3,1.4
30.64,-0.0,0.08,-0.02,0.53,-0.01,9.3,1.23
30.66,-0.02,0.11,-0.01,0.54,-0.0,9.3,0.94
30.68,-0.03,0.1,-0.01,0.55,0.01,9.3,0.78
30.7,-0.04,0.09,-0.01,0.55,0.02,9.31,0.79
30.72,-0.05,0.09,0.0,0.55,0.01,9.31,0.78
30.73,-0.04,0.09,0.03,0.54,0.0,9.31,0.55
30.75,-0.0,0.08,0.04,0.54,0.0,9.31,0.15
30.77,0.03,0.06,0.02,0.54,0.0,9.32,-0.25
30.79,0.04,0.03,-0.0,0.53,0.01,9.34,-0.4
30.81,0.03,0.02,-0.02,0.53,0.01,9.36,-0.37
30.82,0.01,0.02,-0.04,0.53,0.01,9.38,-0.4
30.84,0.0,0.01,-0.07,0.52,0.01,9.37,-0.62
30.86,-0.01,-0.0,-0.07,0.51,0.01,9.36,-0.9
30.88,0.01,-0.02,-0.06,0.51,0.02,9.35,-1.0
30.9,0.04,-0.04,-0.04,0.51,0.01,9.33,-0.82
30.91,0.07,-0.04,-0.03,0.52,0.01,9.3,-0.53
30.93,0.1,-0.05,-0.0,0.53,0.01,9.28,-0.38
30.95,0.13,-0.05,0.01,0.53,0.0,9.29,-0.39
30.97,0.12,-0.03,0.02,0.53,-0.01,9.31,-0.38
30.99,0.07,-0.01,0.04,0.53,-0.01,9.32,-0.13
31.0,0.03,0.02,0.05,0.54,-0.0,9.32,0.28
31.02,-0.01,0.04,0.05,0.54,0.0,9.32,0.67
31.04,-0.04,0.05,0.02,0.54,0.0,9.32,0.8
31.06,-0.05,0.03,-0.02,0.54,0.0,9.31,0.77
31.07,-0.03,0.01,-0.03,0.54,0.01,9.3,0.81
31.09,-0.02,0.0,-0.04,0.54,0.01,9.3,1.04
31.11,-0.02,0.01,-0.05,0.55,0.01,9.3,1.31
31.13,-0.03,-0.01,-0.05,0.55,0.02,9.31,1.39
31.15,-0.04,-0.01,-0.04,0.55,0.03,9.32,1.2
31.17,-0.03,-0.01,-0.04,0.55,0.02,9.32,0.91
31.18,-0.01,-0.0,-0.05,0.55,0.02,9.32,0.77
31.2,0.02,0.0,-0.06,0.55,0.01,9.3,0.79
31.22,0.03,0.01,-0.06,0.54,-0.0,9.3,0.77
31.24,0.04,0.01,-0.04,0.53,-0.01,9.31,0.51
31.25,0.04,0.01,-0.02,0.52,-0.0,9.33,0.1
31.27,0.02,-0.01,-0.01,0.52,0.0,9.33,-0.27
31.29,-0.01,-0.03,0.0,0.53,0.01,9.32,-0.4
31.31,-0.02,-0.02,0.01,0.54,0.01,9.3,-0.37
31.33,-0.03,0.0,0.0,0.54,0.01,9.3,-0.42
31.34,-0.02,-0.0,0.0,0.53,0.01,9.29,-0.65
31.36,-0.03,-0.02,0.02,0.53,0.0,9.3,-0.92
31.38,-0.03,-0.02,0.04,0.52,-0.0,9.3,-0.99
31.4,-0.02,-0.02,0.03,0.52,-0.0,9.3,-0.8
31.42,-0.01,-0.01,0.02,0.53,-0.0,9.32,-0.5
31.43,-0.01,-0.01,-0.0,0.54,0.01,9.33,-0.37
31.45,-0.02,-0.01,-0.02,0.54,0.01,9.33,-0.39
31.47,-0.03,0.0,-0.02,0.53,0.01,9.32,-0.36
31.49,-0.02,0.01,-0.0,0.52,-0.0,9.32,-0.09
31.51,0.0,0.01,0.01,0.53,-0.01,9.32,0.35
31.52,0.02,-0.02,0.02,0.54,-0.02,9.32,0.68
31.54,0.02,-0.05,0.01,0.54,-0.02,9.33,0.8
31.56,0.02,-0.07,0.0,0.53,-0.02,9.34,0.77
31.58,0.02,-0.1,0.01,0.52,-0.03,9.34,0.83
31.59,0.0,-0.09,0.01,0.53,-0.02,9.34,1.07
31.61,-0.01,-0.05,0.0,0.54,0.0,9.34,1.33
31.63,-0.03,-0.01,-0.0,0.55,0.02,9.33,1.38
31.65,-0.06,0.0,0.01,0.55,0.02,9.31,1.17
31.67,-0.09,0.01,0.03,0.55,0.02,9.3,0.89
31.68,-0.1,0.02,0.05,0.54,0.01,9.29,0.77
31.7,-0.1,0.0,0.06,0.54,0.01,9.29,0.79
31.72,-0.09,-0.03,0.05,0.54,0.01,9.3,0.75
31.74,-0.09,-0.06,0.02,0.55,0.01,9.32,0.49
31.76,-0.07,-0.07,0.0,0.56,0.0,9.35,0.03
31.77,-0.03,-0.08,0.0,0.56,-0.0,9.35,-0.3
31.79,0.0,-0.09,0.03,0.56,-0.01,9.35,-0.4
31.81,0.01,-0.07,0.06,0.56,-0.01,9.34,-0.37
31.83,0.0,-0.06,0.08,0.55,-0.01,9.33,-0.43
31.85,-0.01,-0.05,0.08,0.54,-0.0,9.31,-0.68
31.86,-0.01,-0.03,0.08,0.54,0.0,9.31,-0.94
31.88,0.0,-0.01,0.07,0.54,0.0,9.32,-0.98
31.9,0.0,0.0,0.05,0.53,-0.0,9.33,-0.75
31.92,-0.01,0.01,0.02,0.53,-0.01,9.34,-0.48
31.94,-0.04,0.02,-0.01,0.52,-0.01,9.35,-0.37
31.95,-0.06,0.04,-0.02,0.52,-0.01,9.35,-0.39
31.97,-0.07,0.06,-0.02,0.51,-0.01,9.35,-0.34
31.99,-0.07,0.06,-0.03,0.52,-0.01,9.35,-0.07
32.01,-0.08,0.04,-0.05,0.52,-0.0,9.34,0.4
32.03,-0.09,0.01,-0.06,0.52,-0.0,9.34,0.71
32.04,-0.08,-0.0,-0.06,0.51,-0.0,9.33,0.8
32.06,-0.07,0.0,-0.04,0.51,-0.01,9.31,0.77
32.08,-0.06,0.02,-0.03,0.52,-0.02,9.31,0.84
32.1,-0.05,0.05,-0.04,0.53,-0.02,9.31,1.1
32.12,-0.04,0.08,-0.04,0.53,-0.02,9.32,1.35
32.13,-0.03,0.1,-0.03,0.53,-0.01,9.33,1.37
32.15,-0.02,0.09,-0.02,0.53,-0.0,9.32,1.13
32.17,-0.0,0.05,-0.03,0.53,0.01,9.3,0.88
32.19,0.01,-0.0,-0.04,0.53,0.02,9.29,0.77
32.2,0.0,-0.05,-0.05,0.53,0.02,9.29,0.8
32.22,-0.01,-0.06,-0.04,0.53,0.02,9.29,0.73
32.24,-0.03,-0.05,-0.03,0.53,0.01,9.3,0.44
32.26,-0.05,-0.03,-0.02,0.53,0.0,9.32,-0.02
32.28,-0.07,-0.0,-0.02,0.53,-0.01,9.32,-0.32
32.29,-0.08,0.02,-0.03,0.53,-0.01,9.33,-0.4
32.31,-0.07,-0.0,-0.05,0.53,-0.01,9.34,-0.37
32.33,-0.05,-0.04,-0.05,0.53,-0.01,9.34,-0.45
32.35,-0.05,-0.07,-0.06,0.52,-0.01,9.33,-0.73
32.37,-0.05,-0.05,-0.07,0.52,0.0,9.32,-0.96
32.38,-0.08,-0.02,-0.05,0.52,0.01,9.31,-0.95
32.4,-0.11,-0.0,-0.01,0.52,0.02,9.31,-0.72
32.42,-0.11,0.0,0.03,0.52,0.02,9.3,-0.45
32.44,-0.08,-0.0,0.06,0.53,0.02,9.29,-0.37
32.46,-0.04,-0.01,0.08,0.53,0.02,9.28,-0.4
32.47,-0.02,-0.03,0.09,0.54,0.01,9.28,-0.32
32.49,-0.02,-0.06,0.07,0.53,0.01,9.3,0.0
32.51,0.0,-0.09,0.03,0.53,0.01,9.32,0.42
32.53,0.04,-0.11,0.01,0.53,0.01,9.33,0.74
32.54,0.06,-0.11,0.01,0.53,0.01,9.34,0.8
32.56,0.06,-0.1,0.02,0.53,-0.0,9.33,0.77
32.58,0.05,-0.06,0.04,0.53,-0.01,9.31,0.87
32.6,0.04,-0.01,0.05,0.53,-0.01,9.3,1.15
32.62,0.03,0.02,0.05,0.54,-0.01,9.29,1.37
32.63,0.02,0.03,0.05,0.55,-0.0,9.29,1.35
32.65,0.01,0.03,0.05,0.55,0.0,9.28,1.1
32.67,-0.01,0.02,0.06,0.54,0.01,9.28,0.84
32.69,-0.02,0.03,0.06,0.54,0.0,9.28,0.77
32.71,-0.03,0.05,0.05,0.53,-0.0,9.29,0.8
32.72,-0.04,0.06,0.03,0.52,-0.01,9.31,0.72
32.74,-0.06,0.07,0.03,0.5,-0.02,9.32,0.37
32.76,-0.06,0.06,0.03,0.5,-0.02,9.3,-0.04
32.78,-0.05,0.05,0.02,0.5,-0.02,9.29,-0.35
32.8,-0.03,0.06,0.02,0.5,-0.0,9.29,-0.4
32.81,-0.02,0.09,0.03,0.5,0.01,9.3,-0.37
32.83,-0.02,0.11,0.04,0.51,0.01,9.31,-0.48
32.85,-0.04,0.11,0.03,0.51,0.01,9.32,-0.75
32.87,-0.05,0.09,0.02,0.51,0.01,9.32,-0.98
32.89,-0.05,0.07,0.01,0.52,0.01,9.33,-0.94
32.9,-0.04,0.04,0.01,0.53,-0.0,9.34,-0.67
32.92,-0.03,-0.0,-0.01,0.54,-0.01,9.33,-0.43
32.94,-0.01,-0.03,-0.02,0.55,-0.01,9.32,-0.37
32.96,0.01,-0.05,-0.03,0.54,-0.01,9.32,-0.4
32.98,0.03,-0.05,-0.04,0.53,-0.0,9.33,-0.3
32.99,0.03,-0.03,-0.03,0.53,0.0,9.34,0.05
33.01,0.03,-0.0,-0.01,0.53,0.01,9.34,0.49
33.03,0.04,0.02,0.01,0.53,0.02,9.33,0.76
33.05,0.07,0.06,0.02,0.53,0.02,9.32,0.79
33.06,0.07,0.09,0.02,0.53,0.02,9.32,0.77
33.08,0.04,0.1,0.02,0.52,0.02,9.31,0.9
33.1,0.0,0.09,0.01,0.52,0.02,9.3,1.17
33.12,-0.03,0.08,0.0,0.52,0.01,9.29,1.39
33.14,-0.04,0.06,0.02,0.53,0.0,9.28,1.33
33.16,-0.03,0.03,0.03,0.54,-0.0,9.29,1.05
33.17,-0.02,0.01,0.03,0.55,-0.0,9.31,0.83
33.19,-0.03,-0.0,0.03,0.55,-0.0,9.33,0.77
33.21,-0.03,-0.0,0.02,0.54,-0.01,9.35,0.8
33.23,-0.01,0.0,-0.0,0.53,-0.01,9.35,0.68
33.25,0.01,0.0,-0.04,0.53,-0.01,9.34,0.32
33.26,0.02,0.01,-0.06,0.52,-0.01,9.33,-0.11
33.28,0.04,0.01,-0.05,0.52,-0.0,9.33,-0.37
33.3,0.06,0.0,-0.02,0.53,-0.0,9.32,-0.39
33.32,0.04,-0.0,0.01,0.53,-0.01,9.31,-0.37
33.34,-0.01,0.0,0.03,0.54,-0.01,9.3,-0.51
33.35,-0.07,0.01,0.03,0.56,-0.01,9.3,-0.78
33.37,-0.12,0.01,0.01,0.57,-0.01,9.31,-0.99
33.39,-0.14,0.02,-0.01,0.58,-0.01,9.3,-0.92
33.41,-0.13,0.03,-0.01,0.57,-0.0,9.3,-0.65
33.42,-0.09,0.05,0.0,0.55,0.01,9.31,-0.42
33.44,-0.05,0.06,0.03,0.53,0.01,9.32,-0.37
33.46,-0.01,0.08,0.05,0.51,0.02,9.34,-0.4
33.48,0.01,0.09,0.06,0.5,0.03,9.34,-0.27
33.5,0.04,0.08,0.07,0.51,0.02,9.34,0.12
33.51,0.07,0.05,0.06,0.52,0.02,9.33,0.53
33.53,0.1,0.03,0.03,0.53,0.01,9.33,0.77
33.55,0.12,0.01,0.02,0.54,0.01,9.33,0.79
33.57,0.1,0.02,0.02,0.54,-0.0,9.33,0.77
33.59,0.05,0.02,0.02,0.53,-0.0,9.33,0.93
33.6,0.02,0.0,0.03,0.53,-0.0,9.32,1.22
33.62,-0.02,-0.01,0.01,0.53,-0.0,9.32,1.4
33.64,-0.06,-0.03,0.01,0.53,-0.0,9.32,1.3
33.66,-0.11,-0.03,0.01,0.53,-0.0,9.32,1.04
33.68,-0.14,-0.04,0.0,0.54,-0.0,9.3,0.8
33.69,-0.15,-0.04,0.0,0.54,0.0,9.3,0.77
33.71,-0.12,-0.04,0.03,0.54,0.0,9.3,0.8
33.73,-0.09,-0.03,0.06,0.54,0.01,9.31,0.65
33.75,-0.07,-0.02,0.08,0.54,0.01,9.33,0.28
33.77,-0.04,0.0,0.07,0.54,0.02,9.33,-0.15
33.78,-0.01,0.02,0.05,0.54,0.02,9.33,-0.38
33.8,0.01,0.01,0.05,0.54,0.02,9.34,-0.39
33.82,0.0,0.01,0.05,0.54,0.02,9.34,-0.38
33.84,-0.03,0.0,0.06,0.54,0.02,9.33,-0.54
33.86,-0.08,0.0,0.08,0.54,0.02,9.32,-0.83
33.87,-0.12,0.01,0.09,0.54,0.03,9.3,-1.0
33.89,-0.13,-0.0,0.09,0.54,0.04,9.29,-0.89
33.91,-0.14,-0.0,0.06,0.54,0.03,9.28,-0.62
33.93,-0.14,0.02,0.01,0.55,0.02,9.28,-0.4
33.94,-0.11,0.04,-0.04,0.55,0.01,9.28,-0.37
33.96,-0.08,0.06,-0.07,0.56,0.01,9.29,-0.39
33.98,-0.07,0.08,-0.07,0.56,0.0,9.31,-0.24
34.0,-0.06,0.08,-0.07,0.55,0.0,9.33,0.15
34.02,-0.05,0.07,-0.06,0.54,-0.0,9.34,0.57
34.03,-0.04,0.06,-0.05,0.54,-0.0,9.35,0.78
34.05,-0.02,0.05,-0.06,0.53,-0.0,9.34,0.78
34.07,-0.01,0.04,-0.08,0.53,-0.0,9.32,0.78
34.09,0.01,0.04,-0.08,0.53,-0.0,9.31,0.94
34.11,0.03,0.02,-0.07,0.54,-0.01,9.31,1.25
34.12,0.03,0.01,-0.05,0.54,-0.01,9.31,1.4
34.14,0.01,0.02,-0.03,0.55,-0.01,9.31,1.27
34.16,-0.01,0.01,-0.02,0.56,-0.01,9.32,0.99
34.18,-0.02,0.0,0.01,0.56,-0.01,9.34,0.79
34.2,-0.03,-0.0,0.03,0.55,-0.01,9.35,0.78
34.21,-0.02,0.01,0.05,0.55,-0.01,9.34,0.79
34.23,-0.0,0.01,0.07,0.54,-0.01,9.33,0.61
34.25,0.01,0.0,0.09,0.54,-0.01,9.31,0.23
34.27,-0.0,0.0,0.09,0.54,-0.01,9.3,-0.21
34.29,-0.05,0.01,0.08,0.54,-0.01,9.31,-0.39
34.3,-0.09,0.02,0.06,0.53,-0.01,9.32,-0.38
34.32,-0.1,0.04,0.03,0.53,-0.01,9.32,-0.38
34.34,-0.08,0.05,0.01,0.53,-0.0,9.33,-0.57
34.36,-0.06,0.05,-0.0,0.53,0.01,9.34,-0.86
34.38,-0.05,0.03,-0.02,0.54,0.01,9.34,-1.0
34.39,-0.05,0.01,-0.04,0.53,0.01,9.35,-0.86
34.41,-0.07,-0.03,-0.04,0.53,0.01,9.35,-0.57
34.43,-0.08,-0.07,-0.02,0.53,0.01,9.34,-0.39
34.45,-0.09,-0.08,0.0,0.53,0.01,9.33,-0.38
34.46,-0.09,-0.06,0.02,0.54,0.01,9.33,-0.39
34.48,-0.08,-0.04,0.04,0.54,0.01,9.34,-0.19
34.5,-0.04,-0.01,0.05,0.54,0.0,9.35,0.2
34.52,-0.01,0.01,0.04,0.53,-0.0,9.34,0.62
34.54,0.02,0.04,0.02,0.53,-0.01,9.34,0.79
34.55,0.02,0.06,0.01,0.52,-0.0,9.33,0.78
34.57,0.01,0.07,0.01,0.53,0.0,9.32,0.79
34.59,0.01,0.06,0.02,0.54,0.0,9.3,0.99
34.61,0.01,0.04,0.03,0.55,0.0,9.29,1.27
34.63,0.02,0.01,0.04,0.55,0.0,9.29,1.4
34.64,0.03,-0.01,0.02,0.56,-0.0,9.28,1.26
34.66,0.04,-0.03,-0.01,0.55,-0.0,9.28,0.96
34.68,0.04,-0.05,-0.03,0.53,-0.0,9.29,0.78
34.7,0.04,-0.06,-0.04,0.52,0.0,9.31,0.78
34.72,0.04,-0.04,-0.05,0.52,0.01,9.31,0.79
34.73,0.03,0.0,-0.06,0.53,0.02,9.31,0.57
34.75,0.03,0.04,-0.05,0.54,0.01,9.31,0.17
34.77,0.01,0.04,-0.04,0.54,-0.0,9.33,-0.22
34.79,-0.01,0.01,-0.02,0.54,-0.01,9.34,-0.39
34.81,-0.02,0.01,-0.02,0.54,-0.01,9.35,-0.38
34.82,-0.0,0.02,-0.04,0.54,0.0,9.34,-0.4
34.84,0.02,0.04,-0.05,0.54,0.01,9.33,-0.6
34.86,0.04,0.06,-0.04,0.54,0.02,9.31,-0.9
34.88,0.05,0.08,-0.01,0.54,0.02,9.3,-1.0
34.9,0.06,0.1,0.02,0.53,0.02,9.3,-0.83
34.91,0.05,0.09,0.04,0.53,0.02,9.3,-0.54
34.93,0.03,0.07,0.03,0.52,0.01,9.31,-0.38
34.95,-0.0,0.04,0.0,0.52,-0.0,9.31,-0.39
34.97,-0.01,0.0,-0.01,0.53,-0.02,9.31,-0.38
34.98,-0.02,-0.02,-0.03,0.54,-0.02,9.31,-0.17
35.0,-0.04,-0.01,-0.05,0.54,-0.02,9.29,0.28
35.02,-0.06,0.01,-0.06,0.54,-0.01,9.29,0.64
35.04,-0.08,0.03,-0.06,0.55,-0.01,9.3,0.8
35.06,-0.08,0.06,-0.04,0.55,-0.0,9.3,0.77
35.08,-0.07,0.07,-0.02,0.54,0.0,9.3,0.81
35.09,-0.06,0.06,0.01,0.54,0.0,9.3,1.02
35.11,-0.06,0.05,0.02,0.54,-0.01,9.3,1.3
35.13,-0.05,0.02,0.01,0.55,-0.01,9.3,1.4
35.15,-0.03,-0.0,0.0,0.55,-0.02,9.31,1.22
35.16,-0.01,-0.01,-0.01,0.55,-0.03,9.31,0.93
35.18,0.03,0.01,-0.01,0.54,-0.03,9.31,0.77
35.2,0.06,0.03,-0.01,0.54,-0.03,9.32,0.79
35.22,0.05,0.04,-0.02,0.54,-0.03,9.33,0.77
35.24,0.02,0.02,-0.02,0.53,-0.02,9.33,0.55
35.25,0.0,-0.0,-0.02,0.53,-0.02,9.32,0.1
35.27,0.01,-0.02,-0.01,0.53,-0.01,9.31,-0.25
35.29,-0.0,-0.04,-0.01,0.52,-0.0,9.3,-0.4
35.31,-0.01,-0.04,-0.01,0.51,0.01,9.31,-0.37
35.33,-0.01,-0.01,-0.02,0.51,0.02,9.32,-0.41
35.34,-0.03,0.01,-0.03,0.51,0.02,9.33,-0.65
35.36,-0.06,0.0,-0.02,0.52,0.01,9.32,-0.91
35.38,-0.07,0.0,-0.01,0.53,0.0,9.33,-0.99
35.4,-0.05,0.01,-0.01,0.53,-0.0,9.34,-0.8
35.42,-0.05,0.01,-0.01,0.53,-0.0,9.36,-0.5
35.43,-0.04,-0.01,0.01,0.53,0.01,9.37,-0.37
35.45,-0.03,-0.03,0.02,0.53,0.02,9.36,-0.39
35.47,-0.01,-0.03,0.02,0.53,0.02,9.35,-0.37
35.49,-0.01,-0.04,0.02,0.53,0.03,9.35,-0.11
35.51,-0.01,-0.02,0.02,0.53,0.03,9.34,0.32
35.52,-0.01,0.01,0.02,0.53,0.02,9.31,0.68
35.54,-0.0,0.04,0.02,0.52,0.01,9.3,0.8
35.56,0.0,0.06,0.02,0.52,0.01,9.29,0.77
35.58,0.02,0.07,0.03,0.51,0.01,9.29,0.82
35.6,0.03,0.05,0.03,0.52,0.01,9.3,1.07
35.61,0.02,0.02,0.02,0.52,0.02,9.3,1.32
35.63,-0.01,0.01,-0.0,0.52,0.02,9.31,1.38
35.65,-0.02,0.01,-0.02,0.51,0.02,9.31,1.18
35.67,-0.02,0.02,-0.02,0.51,0.01,9.31,0.9
35.68,-0.02,0.05,-0.02,0.52,0.0,9.3,0.77
35.7,-0.02,0.07,0.01,0.52,-0.0,9.29,0.79
35.72,-0.02,0.08,0.05,0.52,-0.01,9.28,0.76
35.74,-0.01,0.07,0.08,0.52,-0.01,9.29,0.49
35.76,-0.0,0.07,0.08,0.52,-0.02,9.31,0.05
35.77,-0.01,0.04,0.05,0.53,-0.02,9.32,-0.3
35.79,-0.02,0.02,0.02,0.52,-0.01,9.32,-0.4
35.81,-0.02,0.03,0.01,0.51,-0.01,9.32,-0.37
35.83,-0.02,0.05,0.0,0.52,-0.0,9.32,-0.43
35.85,-0.02,0.05,-0.01,0.52,-0.0,9.31,-0.68
35.86,-0.01,0.0,-0.01,0.53,-0.0,9.31,-0.94
35.88,-0.01,-0.04,0.0,0.52,-0.0,9.3,-0.98
35.9,-0.01,-0.06,0.01,0.52,-0.0,9.3,-0.75
35.92,-0.01,-0.05,0.0,0.51,-0.0,9.29,-0.49
35.94,0.01,-0.05,-0.01,0.51,-0.01,9.3,-0.37
35.95,0.02,-0.04,-0.03,0.52,-0.01,9.29,-0.39
35.97,0.02,-0.03,-0.04,0.53,-0.0,9.28,-0.34
35.99,0.0,-0.02,-0.04,0.54,0.01,9.3,-0.07
36.01,-0.0,-0.02,-0.03,0.54,0.01,9.32,0.37
36.03,0.01,-0.03,-0.04,0.54,0.02,9.33,0.71
36.04,0.02,-0.04,-0.05,0.53,0.02,9.33,0.8
36.06,0.03,-0.03,-0.06,0.53,0.01,9.32,0.77
36.08,0.03,-0.01,-0.06,0.53,-0.0,9.31,0.84
36.1,0.04,0.02,-0.04,0.54,-0.0,9.29,1.1
36.12,0.04,0.06,-0.01,0.54,0.0,9.29,1.35
36.13,0.02,0.08,-0.0,0.55,-0.0,9.29,1.38
36.15,-0.01,0.08,-0.01,0.55,-0.0,9.3,1.13
36.17,-0.02,0.08,-0.0,0.54,0.0,9.31,0.88
36.19,-0.03,0.09,-0.0,0.54,-0.0,9.33,0.77
36.2,-0.03,0.1,0.0,0.54,-0.01,9.34,0.8
36.22,-0.04,0.09,0.01,0.54,-0.0,9.33,0.74
36.24,-0.02,0.04,0.02,0.54,0.0,9.33,0.44
36.26,0.01,0.01,0.02,0.55,0.01,9.33,0.0
36.28,0.03,0.03,0.01,0.55,0.01,9.34,-0.32
36.29,0.01,0.06,0.02,0.54,0.01,9.33,-0.4
36.31,-0.01,0.07,0.01,0.54,0.0,9.32,-0.37
36.33,-0.02,0.07,0.0,0.54,0.0,9.32,-0.45
36.35,-0.01,0.09,0.0,0.53,-0.0,9.32,-0.7
36.37,-0.0,0.09,-0.01,0.53,-0.01,9.33,-0.96
36.38,0.01,0.06,-0.03,0.52,-0.01,9.34,-0.97
36.4,-0.0,0.02,-0.03,0.53,-0.02,9.34,-0.72
36.42,-0.02,-0.01,-0.02,0.53,-0.02,9.33,-0.47
36.44,-0.04,-0.03,-0.02,0.53,-0.02,9.33,-0.37
36.46,-0.06,-0.03,-0.03,0.52,-0.02,9.32,-0.4
36.47,-0.07,-0.01,-0.03,0.52,-0.01,9.32,-0.33
36.49,-0.07,0.03,-0.02,0.52,0.0,9.31,0.0
36.51,-0.06,0.07,-0.02,0.53,0.01,9.31,0.42
36.53,-0.06,0.08,-0.01,0.54,0.02,9.31,0.74
36.54,-0.06,0.07,-0.01,0.55,0.01,9.31,0.8
36.56,-0.06,0.07,0.0,0.55,0.01,9.31,0.77
36.58,-0.06,0.07,0.01,0.55,0.01,9.3,0.87
36.6,-0.05,0.04,0.01,0.55,0.01,9.31,1.13
36.62,-0.05,0.02,0.01,0.55,0.01,9.32,1.37
36.63,-0.06,-0.01,0.01,0.54,0.0,9.33,1.35
36.65,-0.08,-0.04,0.02,0.54,-0.0,9.34,1.1
36.67,-0.08,-0.07,0.04,0.55,-0.01,9.34,0.84
36.69,-0.08,-0.1,0.09,0.55,-0.02,9.33,0.77
36.71,-0.09,-0.12,0.1,0.55,-0.02,9.33,0.8
36.72,-0.1,-0.1,0.07,0.55,-0.02,9.32,0.72
36.74,-0.09,-0.06,0.04,0.54,-0.0,9.31,0.37
36.76,-0.08,-0.0,0.02,0.53,0.0,9.31,-0.04
36.78,-0.07,0.03,0.01,0.52,0.01,9.32,-0.35
36.8,-0.05,0.05,0.01,0.51,0.01,9.33,-0.4
36.81,-0.04,0.06,0.01,0.51,0.0,9.35,-0.37
36.83,-0.04,0.08,0.0,0.51,0.0,9.35,-0.48
36.85,-0.02,0.06,-0.01,0.52,0.0,9.34,-0.75
36.87,-0.01,0.01,-0.03,0.52,-0.0,9.34,-0.98
36.89,-0.02,-0.04,-0.04,0.53,-0.01,9.35,-0.94
36.9,-0.02,-0.06,-0.04,0.54,-0.01,9.36,-0.7
36.92,-0.02,-0.05,-0.03,0.54,-0.01,9.36,-0.43
36.94,-0.03,-0.02,-0.0,0.54,-0.01,9.35,-0.37
36.96,-0.04,-0.0,0.03,0.54,-0.01,9.33,-0.4
36.97,-0.04,0.02,0.05,0.54,-0.01,9.3,-0.31
36.99,-0.03,0.02,0.05,0.55,-0.01,9.29,0.05
37.01,-0.01,0.02,0.03,0.54,-0.01,9.29,0.49
37.03,0.01,0.03,0.02,0.53,-0.0,9.29,0.75
37.05,0.02,0.04,-0.0,0.52,0.0,9.3,0.79
37.06,-0.0,0.03,-0.02,0.52,0.01,9.32,0.77
37.08,-0.04,0.0,-0.04,0.5,0.01,9.31,0.89
37.1,-0.06,-0.02,-0.07,0.5,0.02,9.29,1.17
37.12,-0.04,-0.04,-0.06,0.5,0.02,9.29,1.39
37.14,0.01,-0.06,-0.04,0.52,0.02,9.28,1.33
37.15,0.05,-0.05,-0.01,0.54,0.01,9.27,1.07
37.17,0.06,-0.02,0.02,0.55,-0.0,9.27,0.83
37.19,0.06,-0.01,0.03,0.55,-0.01,9.28,0.77
37.21,0.07,0.02,0.02,0.55,-0.01,9.29,0.8
37.23,0.06,0.06,-0.0,0.56,-0.01,9.31,0.68
37.24,0.03,0.09,-0.03,0.56,-0.01,9.31,0.35
37.26,-0.02,0.09,-0.04,0.55,0.0,9.3,-0.11
37.28,-0.04,0.06,-0.03,0.55,0.01,9.29,-0.36
37.3,-0.07,0.03,-0.02,0.54,0.01,9.29,-0.39
37.32,-0.08,0.02,-0.0,0.54,0.0,9.29,-0.37
37.34,-0.1,0.02,-0.01,0.54,0.01,9.29,-0.51
37.35,-0.12,0.02,-0.02,0.54,0.02,9.28,-0.78
37.37,-0.1,0.01,-0.01,0.55,0.03,9.28,-0.99
37.39,-0.05,-0.02,0.0,0.55,0.03,9.28,-0.92
37.41,-0.01,-0.02,0.02,0.55,0.02,9.3,-0.65
37.42,0.0,-0.02,0.03,0.54,0.0,9.32,-0.42
37.44,-0.01,-0.01,0.03,0.53,-0.01,9.33,-0.37
37.46,-0.03,0.02,0.02,0.52,-0.01,9.34,-0.4
37.48,-0.07,0.04,-0.01,0.51,0.0,9.34,-0.27
37.5,-0.09,0.03,-0.03,0.52,0.01,9.33,0.08
37.51,-0.08,0.02,-0.04,0.53,0.01,9.32,0.53
37.53,-0.06,0.01,-0.02,0.54,0.0,9.32,0.77
37.55,-0.03,0.02,-0.02,0.55,0.0,9.33,0.79
37.57,-0.02,0.01,-0.04,0.54,-0.0,9.35,0.77
37.59,-0.02,-0.01,-0.05,0.53,0.0,9.36,0.91
37.6,-0.02,-0.04,-0.05,0.53,0.01,9.35,1.22
37.62,-0.02,-0.07,-0.03,0.53,0.01,9.35,1.39
37.64,-0.02,-0.09,-0.02,0.54,0.02,9.35,1.3
37.66,-0.02,-0.07,-0.02,0.54,0.02,9.35,1.04
37.68,-0.01,-0.05,-0.01,0.54,0.02,9.35,0.8
37.69,0.0,-0.03,-0.0,0.54,0.02,9.34,0.77
37.71,0.01,-0.0,0.01,0.54,0.02,9.31,0.8
37.73,0.0,0.04,0.0,0.55,0.02,9.29,0.65
37.75,-0.01,0.07,0.0,0.55,0.02,9.29,0.28
37.77,-0.03,0.09,-0.0,0.56,0.02,9.3,-0.15
37.78,-0.06,0.07,-0.0,0.56,0.02,9.31,-0.38
37.8,-0.07,0.02,0.01,0.56,0.02,9.32,-0.39
37.82,-0.07,-0.03,0.03,0.56,0.01,9.32,-0.38
37.84,-0.08,-0.07,0.03,0.56,0.0,9.32,-0.53
37.86,-0.1,-0.08,0.02,0.55,-0.0,9.32,-0.83
37.87,-0.08,-0.06,0.01,0.54,-0.01,9.32,-1.0
37.89,-0.03,-0.02,-0.0,0.54,-0.01,9.31,-0.89
37.91,0.0,0.02,-0.01,0.54,-0.0,9.29,-0.62
37.93,0.01,0.03,-0.01,0.53,0.01,9.29,-0.4
37.94,0.0,0.0,-0.02,0.53,0.03,9.3,-0.37
37.96,0.01,-0.02,-0.03,0.53,0.04,9.32,-0.4
37.98,0.01,-0.03,-0.04,0.54,0.04,9.35,-0.24
38.0,0.01,-0.02,-0.04,0.54,0.02,9.34,0.15
38.02,0.01,0.01,-0.04,0.54,0.01,9.33,0.57
38.03,0.0,0.04,-0.03,0.53,0.0,9.33,0.78
38.05,-0.01,0.04,0.01,0.52,0.0,9.33,0.79
38.07,-0.02,0.03,0.04,0.5,0.0,9.33,0.78
38.09,-0.03,0.02,0.06,0.5,0.01,9.33,0.94
38.11,-0.05,0.04,0.07,0.5,0.02,9.32,1.25
38.12,-0.06,0.08,0.07,0.52,0.02,9.29,1.4
38.14,-0.05,0.09,0.07,0.53,0.02,9.28,1.29
38.16,-0.02,0.07,0.06,0.54,0.01,9.27,1.0
38.18,0.01,0.03,0.04,0.54,0.01,9.28,0.8
38.2,0.03,0.0,0.02,0.54,-0.0,9.29,0.78
38.21,0.03,-0.01,-0.0,0.54,-0.0,9.31,0.79
38.23,0.01,-0.03,-0.02,0.55,-0.01,9.32,0.62
38.25,-0.01,-0.06,-0.04,0.55,-0.01,9.34,0.23
38.27,-0.02,-0.06,-0.05,0.55,-0.0,9.34,-0.19
38.29,-0.03,-0.04,-0.05,0.54,0.0,9.34,-0.39
38.3,-0.02,-0.01,-0.03,0.53,0.01,9.34,-0.38
38.32,-0.02,0.03,0.01,0.53,0.01,9.34,-0.38
38.34,-0.02,0.04,0.04,0.54,0.01,9.33,-0.57
38.36,-0.02,0.02,0.07,0.54,0.01,9.32,-0.85
38.38,-0.02,0.0,0.08,0.54,0.0,9.32,-1.0
38.39,-0.0,-0.03,0.07,0.55,0.0,9.32,-0.87
38.41,0.02,-0.06,0.06,0.55,0.0,9.32,-0.57
38.43,0.03,-0.08,0.06,0.55,0.01,9.32,-0.39
38.45,0.03,-0.08,0.05,0.55,0.0,9.31,-0.38
38.46,0.03,-0.08,0.04,0.54,0.0,9.31,-0.39
38.48,0.01,-0.06,0.04,0.53,0.01,9.31,-0.21
38.5,-0.02,-0.04,0.04,0.53,0.01,9.29,0.2
38.52,-0.03,-0.03,0.04,0.52,0.01,9.28,0.61
38.54,-0.03,-0.01,0.02,0.52,0.0,9.28,0.79
38.55,-0.03,0.02,-0.01,0.51,0.0,9.29,0.78
38.57,-0.03,0.05,-0.02,0.51,0.0,9.31,0.79
38.59,-0.02,0.05,-0.02,0.52,0.0,9.31,0.99
38.61,-0.0,0.03,-0.02,0.53,-0.0,9.31,1.26
38.63,0.01,0.03,-0.01,0.54,-0.01,9.31,1.4
38.64,0.02,0.04,0.0,0.54,-0.01,9.31,1.26
38.66,0.03,0.04,-0.0,0.54,-0.01,9.31,0.96
38.68,0.02,0.02,-0.01,0.52,-0.01,9.31,0.78
38.7,-0.0,-0.01,-0.04,0.51,-0.0,9.32,0.78
38.72,-0.03,-0.04,-0.07,0.5,-0.01,9.34,0.79
38.73,-0.03,-0.05,-0.06,0.5,-0.01,9.35,0.59
38.75,-0.01,-0.04,-0.03,0.51,-0.02,9.35,0.17
38.77,0.01,-0.05,-0.0,0.51,-0.01,9.34,-0.22
38.79,0.02,-0.08,0.01,0.52,-0.01,9.33,-0.39
38.81,0.01,-0.09,0.0,0.52,-0.0,9.33,-0.38
38.82,-0.02,-0.09,-0.01,0.52,0.0,9.32,-0.39
38.84,-0.04,-0.07,-0.01,0.51,0.01,9.31,-0.6
38.86,-0.06,-0.03,-0.01,0.51,0.01,9.32,-0.89
38.88,-0.08,0.01,-0.01,0.51,0.01,9.32,-1.0
38.9,-0.1,0.02,-0.01,0.52,0.01,9.32,-0.83
38.91,-0.11,0.02,0.0,0.53,0.01,9.31,-0.54
38.93,-0.1,0.03,0.01,0.53,0.01,9.3,-0.38
38.95,-0.09,0.05,0.01,0.53,0.02,9.3,-0.38
38.97,-0.08,0.06,0.02,0.53,0.02,9.3,-0.38
38.98,-0.08,0.03,0.03,0.53,0.02,9.32,-0.17
39.0,-0.06,-0.0,0.02,0.53,0.02,9.33,0.28
39.02,-0.02,-0.02,0.01,0.53,0.02,9.33,0.64
39.04,0.04,-0.03,0.02,0.54,0.02,9.33,0.8
39.06,0.07,-0.03,0.03,0.55,0.01,9.33,0.77
39.07,0.07,-0.02,0.04,0.55,0.0,9.33,0.8
39.09,0.06,-0.02,0.04,0.55,-0.01,9.33,1.02
39.11,0.03,-0.01,0.04,0.54,-0.0,9.32,1.3
39.13,0.01,-0.01,0.03,0.53,0.0,9.31,1.4
39.15,0.0,-0.01,0.02,0.53,0.01,9.31,1.22
39.16,-0.02,-0.01,-0.0,0.53,0.01,9.31,0.94
39.18,-0.03,-0.01,-0.03,0.52,0.01,9.32,0.77
39.2,-0.03,0.0,-0.05,0.52,0.01,9.32,0.79
39.22,-0.03,0.03,-0.04,0.52,0.01,9.31,0.77
39.24,-0.03,0.05,-0.03,0.53,0.01,9.31,0.55
39.25,-0.03,0.05,-0.03,0.54,0.01,9.31,0.1
39.27,-0.0,0.02,-0.03,0.54,0.01,9.33,-0.25
39.29,0.03,-0.02,-0.04,0.54,0.02,9.34,-0.4
39.31,0.03,-0.05,-0.05,0.54,0.01,9.35,-0.37
39.33,0.02,-0.05,-0.06,0.53,0.0,9.36,-0.41
39.34,-0.0,-0.02,-0.07,0.53,-0.01,9.37,-0.65
39.36,-0.01,0.01,-0.06,0.53,-0.01,9.38,-0.91
39.38,-0.01,0.01,-0.03,0.53,-0.01,9.37,-0.99
39.4,0.02,-0.0,-0.01,0.53,-0.0,9.35,-0.8
39.42,0.04,-0.01,0.01,0.52,-0.01,9.32,-0.51
39.43,0.03,0.01,-0.01,0.52,-0.01,9.31,-0.37
39.45,0.01,0.04,-0.03,0.52,-0.02,9.32,-0.39
39.47,-0.03,0.06,-0.03,0.52,-0.02,9.33,-0.37
39.49,-0.04,0.06,-0.0,0.52,-0.02,9.33,-0.11
39.5,-0.03,0.05,0.03,0.52,-0.02,9.33,0.3
39.52,-0.01,0.04,0.05,0.52,-0.02,9.32,0.68
39.54,-0.01,0.04,0.06,0.52,-0.02,9.31,0.8
39.56,-0.04,0.05,0.04,0.53,-0.02,9.3,0.77
39.58,-0.07,0.05,-0.01,0.53,-0.01,9.31,0.82
39.6,-0.09,0.03,-0.07,0.54,-0.01,9.31,1.07
39.61,-0.09,0.01,-0.11,0.54,-0.0,9.32,1.32
39.63,-0.09,0.01,-0.12,0.54,-0.0,9.32,1.39
39.65,-0.08,-0.0,-0.12,0.54,-0.0,9.31,1.18
39.67,-0.04,-0.01,-0.1,0.54,0.0,9.31,0.9
39.69,-0.02,-0.01,-0.05,0.53,0.01,9.3,0.77
39.7,-0.0,0.01,0.0,0.54,0.01,9.3,0.79
39.72,0.0,0.06,0.03,0.54,0.0,9.29,0.76
39.74,-0.02,0.08,0.04,0.54,-0.01,9.29,0.49
39.76,-0.04,0.09,0.05,0.53,-0.01,9.29,0.05
39.77,-0.04,0.09,0.06,0.53,-0.01,9.3,-0.3
39.79,-0.04,0.1,0.07,0.53,-0.01,9.31,-0.4
39.81,-0.04,0.09,0.06,0.53,-0.01,9.31,-0.37
39.83,-0.05,0.06,0.05,0.54,-0.01,9.32,-0.43
39.85,-0.05,0.04,0.05,0.54,-0.01,9.32,-0.67
39.86,-0.04,0.01,0.05,0.54,-0.02,9.32,-0.94
39.88,-0.03,-0.01,0.05,0.53,-0.03,9.31,-0.98
39.9,-0.01,-0.01,0.04,0.52,-0.02,9.3,-0.75
39.92,0.01,-0.01,0.0,0.52,-0.02,9.29,-0.49
39.94,0.03,-0.01,-0.03,0.52,-0.01,9.28,-0.37
39.95,0.03,-0.01,-0.05,0.53,-0.01,9.28,-0.39
39.97,0.01,-0.01,-0.05,0.53,-0.01,9.3,-0.35
39.99,0.01,-0.03,-0.04,0.53,-0.01,9.31,-0.07
40.01,0.01,-0.04,-0.04,0.53,-0.01,9.32,0.37
40.03,0.01,-0.04,-0.02,0.53,-0.01,9.32,0.71
40.04,0.0,-0.06,-0.01,0.53,-0.0,9.32,0.8
40.06,-0.0,-0.07,0.01,0.53,-0.0,9.32,0.77
40.08,-0.0,-0.07,0.04,0.53,-0.01,9.33,0.84
40.1,-0.0,-0.06,0.05,0.53,-0.0,9.33,1.08
40.12,-0.0,-0.06,0.04,0.54,0.0,9.32,1.35
40.13,0.0,-0.05,0.04,0.55,0.01,9.3,1.37
40.15,-0.0,-0.04,0.02,0.55,0.0,9.29,1.13
40.17,-0.01,-0.03,-0.0,0.56,-0.0,9.28,0.87
40.19,0.01,-0.0,-0.02,0.55,-0.01,9.28,0.77
40.21,0.03,0.04,-0.02,0.54,-0.02,9.29,0.8
40.22,0.04,0.08,-0.02,0.52,-0.02,9.3,0.74
40.24,0.04,0.09,-0.02,0.51,-0.03,9.29,0.42
40.26,0.03,0.09,-0.0,0.51,-0.02,9.3,0.0
40.28,0.01,0.09,0.01,0.51,-0.02,9.31,-0.32
40.29,0.01,0.06,0.01,0.52,-0.0,9.32,-0.4
40.31,0.02,0.02,0.0,0.52,0.01,9.32,-0.37
40.33,0.01,-0.01,-0.0,0.53,0.02,9.32,-0.45
40.35,-0.0,-0.02,-0.02,0.53,0.03,9.32,-0.72
40.37,-0.02,-0.03,-0.03,0.53,0.03,9.32,-0.96
40.38,-0.02,-0.03,-0.04,0.53,0.02,9.31,-0.96
40.4,-0.02,-0.0,-0.06,0.52,0.01,9.3,-0.73
40.42,-0.02,0.01,-0.07,0.51,0.0,9.3,-0.45
40.44,-0.02,0.02,-0.06,0.51,-0.0,9.3,-0.37
40.46,-0.03,0.02,-0.04,0.51,-0.0,9.29,-0.4
40.47,-0.04,0.03,-0.02,0.52,0.0,9.29,-0.33
40.49,-0.04,0.04,-0.02,0.52,0.0,9.3,0.0
40.51,-0.03,0.03,-0.03,0.52,0.0,9.31,0.42
40.53,-0.03,-0.01,-0.05,0.52,-0.0,9.32,0.73
40.54,-0.03,-0.06,-0.07,0.53,0.0,9.33,0.8
40.56,-0.04,-0.08,-0.08,0.54,0.01,9.34,0.77
40.58,-0.04,-0.08,-0.07,0.54,0.02,9.34,0.87
40.6,-0.02,-0.06,-0.06,0.53,0.01,9.33,1.13
40.62,0.0,-0.05,-0.06,0.53,0.0,9.32,1.36
40.63,0.02,-0.03,-0.05,0.53,-0.01,9.33,1.35
40.65,0.03,0.02,-0.05,0.52,-0.01,9.33,1.12
40.67,0.03,0.04,-0.04,0.52,-0.0,9.33,0.84
40.69,0.03,0.04,-0.03,0.51,-0.0,9.32,0.77
40.71,0.03,0.02,-0.01,0.5,-0.0,9.32,0.8
40.72,0.04,-0.0,-0.01,0.51,-0.0,9.34,0.71
40.74,0.05,-0.01,-0.02,0.52,-0.0,9.35,0.4
40.76,0.06,-0.01,-0.04,0.52,-0.01,9.35,-0.07
40.78,0.06,0.01,-0.04,0.54,-0.01,9.34,-0.34
40.8,0.05,0.03,-0.04,0.54,-0.01,9.32,-0.39
40.81,0.03,0.04,-0.03,0.54,-0.01,9.3,-0.37
40.83,0.0,0.06,-0.02,0.54,-0.02,9.31,-0.49
40.85,-0.02,0.06,-0.01,0.54,-0.02,9.32,-0.75
40.87,-0.05,0.05,0.01,0.54,-0.02,9.34,-0.98
40.89,-0.09,0.03,0.02,0.54,-0.02,9.35,-0.94
40.9,-0.12,-0.01,0.01,0.54,-0.01,9.35,-0.68
40.92,-0.13,-0.03,-0.02,0.54,-0.01,9.35,-0.43
40.94,-0.14,-0.02,-0.03,0.54,-0.02,9.33,-0.37
40.96,-0.15,0.0,-0.04,0.54,-0.02,9.31,-0.4
40.98,-0.15,0.03,-0.05,0.54,-0.02,9.3,-0.3
40.99,-0.13,0.05,-0.05,0.54,-0.01,9.3,0.03
41.01,-0.12,0.06,-0.03,0.53,0.0,9.31,0.49
41.03,-0.1,0.06,-0.01,0.53,0.0,9.32,0.75
41.05,-0.08,0.06,-0.02,0.54,0.0,9.31,0.79
41.06,-0.06,0.03,-0.06,0.55,0.0,9.31,0.77
41.08,-0.04,-0.02,-0.08,0.55,-0.0,9.31,0.89
41.1,-0.03,-0.07,-0.07,0.54,-0.01,9.3,1.17
41.12,-0.02,-0.1,-0.04,0.53,-0.01,9.29,1.38
41.14,-0.04,-0.1,-0.03,0.52,-0.01,9.29,1.32
41.15,-0.06,-0.08,-0.02,0.52,-0.01,9.3,1.07
41.17,-0.08,-0.07,-0.01,0.51,-0.01,9.31,0.82
41.19,-0.09,-0.07,-0.01,0.5,-0.02,9.31,0.77
41.21,-0.08,-0.06,-0.0,0.5,-0.02,9.32,0.8
41.23,-0.06,-0.04,-0.0,0.51,-0.02,9.33,0.68
41.25,-0.03,-0.03,-0.01,0.51,-0.01,9.32,0.32
41.26,-0.01,-0.02,-0.02,0.51,-0.0,9.31,-0.11
41.28,0.0,-0.01,-0.02,0.51,0.01,9.29,-0.37
41.3,-0.0,-0.0,-0.01,0.52,0.01,9.27,-0.39
41.32,-0.01,0.01,-0.01,0.52,0.01,9.27,-0.37
41.33,0.0,0.03,-0.01,0.54,0.01,9.29,-0.5
41.35,0.04,0.05,-0.02,0.55,0.01,9.3,-0.8
41.37,0.09,0.08,-0.04,0.55,0.02,9.31,-0.99
41.39,0.1,0.08,-0.03,0.55,0.02,9.32,-0.91
41.41,0.05,0.06,0.01,0.55,0.02,9.32,-0.65
41.42,-0.01,0.02,0.04,0.54,0.01,9.32,-0.42
41.44,-0.07,-0.03,0.05,0.53,0.01,9.32,-0.37
41.46,-0.1,-0.07,0.04,0.52,0.01,9.33,-0.4
41.48,-0.11,-0.11,0.03,0.51,-0.0,9.32,-0.27
41.5,-0.09,-0.11,0.02,0.51,-0.01,9.31,0.1
41.52,-0.08,-0.12,0.02,0.52,-0.01,9.29,0.55
41.53,-0.07,-0.14,0.01,0.53,-0.0,9.28,0.77
41.55,-0.05,-0.15,-0.02,0.54,0.01,9.28,0.79
41.57,-0.04,-0.13,-0.05,0.54,0.01,9.29,0.77
41.59,-0.03,-0.08,-0.09,0.54,0.01,9.31,0.93
41.6,-0.03,-0.03,-0.12,0.54,0.01,9.34,1.22
41.62,-0.03,0.0,-0.13,0.55,-0.0,9.34,1.4
41.64,-0.03,0.02,-0.12,0.56,-0.0,9.33,1.31
41.66,-0.04,0.02,-0.1,0.56,0.0,9.31,1.02
41.68,-0.03,0.01,-0.06,0.55,0.01,9.3,0.81
41.69,-0.01,0.02,-0.01,0.55,0.01,9.29,0.77
41.71,-0.0,0.03,0.02,0.55,0.0,9.3,0.8
41.73,0.01,0.05,0.02,0.55,0.0,9.3,0.64
41.75,0.02,0.08,0.02,0.55,0.0,9.3,0.28
41.77,0.03,0.12,0.01,0.54,0.01,9.29,-0.15
41.78,0.04,0.13,0.02,0.54,0.01,9.28,-0.38
41.8,0.06,0.13,0.04,0.53,0.01,9.28,-0.39
41.82,0.05,0.1,0.05,0.53,0.01,9.28,-0.38
41.84,0.02,0.05,0.04,0.52,0.01,9.28,-0.54
41.85,0.01,0.02,0.02,0.52,0.01,9.29,-0.82
41.87,-0.02,0.01,-0.0,0.52,0.01,9.29,-1.0
41.89,-0.06,0.01,-0.03,0.52,0.02,9.3,-0.9
41.91,-0.06,0.01,-0.03,0.52,0.02,9.3,-0.6
41.93,-0.05,0.01,-0.03,0.52,0.02,9.29,-0.4
41.95,-0.04,0.01,-0.04,0.52,0.02,9.28,-0.38
41.96,-0.05,0.01,-0.04,0.52,0.01,9.27,-0.39
41.98,-0.06,0.01,-0.01,0.53,0.01,9.27,-0.24
42.0,-0.06,0.0,0.02,0.53,0.0,9.28,0.17
42.02,-0.04,-0.03,0.05,0.53,0.0,9.29,0.57
42.04,-0.02,-0.06,0.06,0.54,0.01,9.3,0.79
42.05,0.0,-0.06,0.07,0.54,0.01,9.31,0.78
42.07,0.05,-0.06,0.08,0.55,0.02,9.33,0.78
42.09,0.07,-0.08,0.08,0.55,0.02,9.33,0.96
42.11,0.07,-0.1,0.07,0.55,0.02,9.33,1.25
42.12,0.06,-0.1,0.07,0.55,0.02,9.33,1.4
42.14,0.03,-0.06,0.04,0.55,0.02,9.33,1.27
42.16,0.02,-0.02,0.02,0.55,0.02,9.32,0.99
42.18,0.01,-0.0,0.01,0.56,0.0,9.32,0.79
42.2,0.02,-0.02,0.01,0.56,-0.01,9.32,0.78
42.21,0.03,-0.02,0.01,0.56,-0.02,9.31,0.79
42.23,0.02,-0.01,0.0,0.55,-0.03,9.31,0.62
42.25,-0.0,-0.01,-0.01,0.54,-0.02,9.32,0.2
42.27,-0.01,-0.02,-0.02,0.54,-0.01,9.33,-0.19
42.29,0.02,-0.03,-0.02,0.54,-0.0,9.34,-0.39
42.3,0.05,-0.01,-0.01,0.54,0.01,9.33,-0.38
42.32,0.07,0.02,0.02,0.53,0.02,9.33,-0.38
42.34,0.04,0.04,0.04,0.52,0.03,9.33,-0.57
42.36,0.0,0.06,0.03,0.51,0.03,9.32,-0.86
42.38,-0.04,0.08,0.02,0.51,0.02,9.31,-1.0
42.39,-0.06,0.09,0.01,0.53,0.01,9.3,-0.86
42.41,-0.07,0.08,-0.01,0.54,0.0,9.29,-0.57
42.43,-0.07,0.06,-0.03,0.54,-0.0,9.29,-0.38
42.45,-0.09,0.05,-0.04,0.54,0.0,9.29,-0.38
42.47,-0.1,0.04,-0.04,0.54,0.01,9.31,-0.39
42.48,-0.1,0.05,-0.02,0.55,0.01,9.31,-0.19
42.5,-0.09,0.06,-0.0,0.56,0.02,9.31,0.23
42.52,-0.08,0.03,0.02,0.55,0.03,9.31,0.62
42.54,-0.06,-0.0,0.02,0.55,0.03,9.31,0.79
42.56,-0.04,-0.02,0.01,0.54,0.02,9.33,0.78
42.57,-0.02,-0.0,-0.01,0.54,0.02,9.34,0.79
42.59,0.0,0.02,-0.02,0.54,0.02,9.34,1.0
42.61,0.03,0.02,-0.02,0.54,0.03,9.33,1.27
42.63,0.04,0.01,-0.03,0.53,0.03,9.32,1.4
42.64,0.02,0.01,-0.05,0.53,0.02,9.32,1.25
42.66,0.01,0.0,-0.06,0.53,0.02,9.32,0.96
42.68,0.01,-0.02,-0.04,0.54,0.02,9.32,0.78
42.7,0.03,-0.03,-0.01,0.55,0.02,9.33,0.78
42.72,0.03,-0.04,0.01,0.54,0.02,9.33,0.78
42.73,0.01,-0.04,0.01,0.53,0.02,9.33,0.57
42.75,-0.01,-0.05,0.01,0.53,0.01,9.32,0.15
42.77,-0.01,-0.06,0.01,0.53,0.0,9.31,-0.24
42.79,0.02,-0.05,0.0,0.53,-0.01,9.31,-0.39
42.81,0.04,-0.03,-0.01,0.54,-0.02,9.32,-0.37
42.82,0.05,0.0,-0.01,0.55,-0.03,9.33,-0.4
42.84,0.05,0.01,0.01,0.55,-0.02,9.34,-0.62
42.86,0.05,-0.04,0.04,0.56,-0.02,9.34,-0.89
42.88,0.05,-0.1,0.07,0.56,-0.01,9.33,-1.0
42.9,0.03,-0.15,0.09,0.55,-0.01,9.31,-0.83
42.91,0.02,-0.15,0.08,0.55,-0.02,9.3,-0.54
42.93,0.03,-0.12,0.04,0.55,-0.03,9.3,-0.38
42.95,0.03,-0.1,0.0,0.56,-0.05,9.3,-0.39
42.97,0.01,-0.09,-0.02,0.56,-0.05,9.31,-0.37
42.99,-0.02,-0.08,-0.03,0.55,-0.04,9.3,-0.15
43.0,-0.03,-0.07,-0.04,0.56,-0.02,9.3,0.28
43.02,-0.04,-0.05,-0.06,0.56,-0.01,9.3,0.65
43.04,-0.06,-0.03,-0.07,0.57,0.0,9.31,0.8
43.06,-0.08,0.0,-0.04,0.57,0.01,9.33,0.77
43.08,-0.1,0.02,0.0,0.57,0.01,9.34,0.81
43.09,-0.1,0.01,0.02,0.57,0.01,9.34,1.02
43.11,-0.09,0.0,0.02,0.56,0.0,9.33,1.31
43.13,-0.07,0.01,0.01,0.55,-0.01,9.33,1.4
43.15,-0.06,0.01,-0.0,0.53,-0.02,9.32,1.2
43.16,-0.05,-0.01,-0.01,0.53,-0.03,9.33,0.93
43.18,-0.03,-0.03,-0.01,0.54,-0.02,9.33,0.77
43.2,-0.01,-0.03,-0.0,0.55,-0.02,9.33,0.79
43.22,0.01,-0.02,0.01,0.56,-0.02,9.33,0.77
43.24,0.02,-0.02,0.02,0.56,-0.02,9.33,0.53
43.25,0.0,-0.04,0.02,0.56,-0.01,9.32,0.1
43.27,-0.02,-0.04,0.02,0.55,-0.01,9.3,-0.27
43.29,-0.03,-0.03,0.03,0.55,-0.01,9.29,-0.4
43.31,-0.04,-0.02,0.04,0.54,-0.01,9.29,-0.37
43.33,-0.04,-0.01,0.05,0.54,-0.01,9.3,-0.42
43.34,-0.05,-0.01,0.04,0.54,-0.01,9.31,-0.64
43.36,-0.04,-0.0,0.03,0.54,-0.02,9.32,-0.92
43.38,-0.03,-0.0,0.01,0.54,-0.01,9.33,-0.99
43.4,-0.03,-0.0,-0.01,0.54,-0.01,9.34,-0.78
43.42,-0.02,0.0,-0.04,0.54,-0.0,9.35,-0.5
43.43,-0.0,0.02,-0.05,0.53,0.01,9.34,-0.37
43.45,-0.0,0.03,-0.05,0.53,0.02,9.33,-0.39
43.47,-0.02,0.01,-0.04,0.52,0.02,9.32,-0.37
43.49,-0.02,-0.01,-0.04,0.52,0.02,9.31,-0.09
43.51,-0.02,-0.02,-0.04,0.53,0.02,9.31,0.32
43.52,-0.01,-0.02,-0.02,0.53,0.01,9.3,0.7
43.54,-0.01,-0.01,-0.01,0.54,0.01,9.3,0.8
43.56,-0.03,-0.02,0.01,0.55,0.0,9.32,0.77
43.58,-0.05,-0.03,0.04,0.56,0.0,9.34,0.83
43.6,-0.08,-0.02,0.05,0.56,-0.01,9.35,1.07
43.61,-0.09,0.01,0.06,0.56,-0.01,9.34,1.33
43.63,-0.07,0.03,0.04,0.56,-0.02,9.34,1.38
43.65,-0.03,0.04,0.01,0.55,-0.02,9.33,1.17
43.67,0.0,0.03,0.01,0.54,-0.03,9.31,0.89
43.68,0.01,0.03,0.01,0.54,-0.03,9.3,0.77
43.7,0.01,0.05,0.0,0.54,-0.03,9.3,0.79
43.72,0.01,0.08,-0.01,0.53,-0.03,9.3,0.76
43.74,0.01,0.08,-0.02,0.53,-0.03,9.31,0.47
43.76,0.01,0.05,-0.02,0.53,-0.02,9.34,0.05
43.77,0.0,0.02,-0.02,0.52,-0.01,9.36,-0.3
43.79,0.0,-0.02,-0.02,0.52,0.01,9.38,-0.4
43.81,-0.02,-0.03,-0.02,0.52,0.01,9.38,-0.37
43.83,-0.05,-0.03,-0.02,0.53,0.0,9.37,-0.44
43.85,-0.07,-0.05,-0.04,0.53,0.0,9.35,-0.68
43.87,-0.07,-0.07,-0.06,0.53,0.0,9.33,-0.95
43.88,-0.07,-0.06,-0.07,0.53,-0.0,9.31,-0.98
43.9,-0.05,-0.03,-0.06,0.53,-0.0,9.3,-0.75
43.92,-0.02,-0.01,-0.02,0.54,-0.0,9.3,-0.48
43.94,0.0,0.01,0.01,0.54,0.0,9.31,-0.37
43.95,0.01,0.04,0.04,0.53,0.01,9.32,-0.4
43.97,0.01,0.06,0.05,0.54,0.01,9.32,-0.34
43.99,0.01,0.06,0.04,0.54,0.01,9.31,-0.04
44.01,0.02,0.06,-0.02,0.53,0.01,9.31,0.4
44.03,0.03,0.07,-0.07,0.53,0.01,9.3,0.71
44.04,0.05,0.08,-0.09,0.54,0.01,9.29,0.8
44.06,0.07,0.08,-0.09,0.54,0.01,9.29,0.77
44.08,0.09,0.07,-0.08,0.55,0.0,9.3,0.85
44.1,0.1,0.04,-0.07,0.55,0.0,9.3,1.1
44.12,0.09,0.01,-0.07,0.55,0.01,9.3,1.35
44.13,0.06,-0.0,-0.08,0.55,0.01,9.3,1.37
44.15,0.04,0.01,-0.07,0.55,0.01,9.31,1.13
44.17,0.03,0.01,-0.05,0.54,0.01,9.31,0.87
44.19,0.0,-0.02,-0.02,0.54,0.01,9.32,0.77
44.21,-0.01,-0.04,-0.0,0.54,0.01,9.33,0.8
44.22,-0.01,-0.05,0.01,0.54,0.01,9.33,0.73
44.24,-0.0,-0.03,0.0,0.54,0.01,9.33,0.44
44.26,-0.0,-0.01,0.0,0.54,0.01,9.33,-0.02
44.28,-0.01,-0.0,0.01,0.54,0.01,9.35,-0.32
44.29,0.0,-0.01,0.02,0.53,0.0,9.36,-0.4
44.31,0.01,-0.03,0.02,0.53,0.0,9.37,-0.37
44.33,0.0,-0.04,0.01,0.53,-0.0,9.37,-0.47
44.35,-0.03,-0.01,-0.01,0.53,-0.01,9.37,-0.72
44.37,-0.06,0.03,-0.02,0.54,-0.01,9.36,-0.96
44.38,-0.06,0.07,-0.04,0.55,-0.0,9.34,-0.96
44.4,-0.03,0.05,-0.05,0.55,-0.0,9.32,-0.72
44.42,-0.03,0.02,-0.04,0.54,-0.0,9.31,-0.45
44.44,-0.03,-0.0,-0.03,0.54,-0.01,9.32,-0.37
44.46,-0.03,-0.01,-0.03,0.53,-0.01,9.32,-0.4
44.47,-0.05,-0.01,-0.02,0.53,-0.01,9.31,-0.32
44.49,-0.07,-0.0,-0.01,0.53,-0.0,9.32,0.0
44.51,-0.08,0.0,-0.0,0.54,0.01,9.33,0.44
44.53,-0.06,0.0,-0.0,0.54,0.02,9.35,0.74
44.55,-0.03,0.01,0.0,0.54,0.03,9.36,0.8
44.56,-0.01,0.02,-0.0,0.53,0.03,9.36,0.77
44.58,0.01,0.03,-0.0,0.53,0.02,9.36,0.87
44.6,0.01,0.02,0.01,0.53,0.01,9.35,1.15
44.62,-0.02,0.02,0.04,0.54,0.01,9.34,1.37
44.64,-0.05,0.0,0.06,0.54,0.0,9.34,1.34
44.65,-0.09,-0.02,0.07,0.53,-0.0,9.34,1.1
44.67,-0.11,-0.03,0.05,0.52,-0.0,9.34,0.83
44.69,-0.11,-0.04,0.04,0.52,-0.0,9.35,0.77
44.71,-0.08,-0.02,0.03,0.52,0.0,9.35,0.8
44.72,-0.05,-0.01,0.02,0.52,0.01,9.35,0.71
44.74,-0.03,-0.0,0.01,0.52,0.02,9.34,0.37
44.76,-0.02,0.01,0.01,0.52,0.02,9.33,-0.07
44.78,-0.03,0.04,0.02,0.53,0.02,9.32,-0.35
44.8,-0.03,0.03,0.04,0.54,0.02,9.31,-0.4
44.81,-0.03,0.01,0.04,0.54,0.02,9.3,-0.37
44.83,-0.03,0.02,0.02,0.55,0.02,9.3,-0.48
44.85,-0.04,0.05,0.02,0.55,0.02,9.3,-0.77
44.87,-0.03,0.07,0.02,0.54,0.03,9.31,-0.98
44.89,-0.02,0.05,0.03,0.55,0.03,9.31,-0.93
44.9,-0.0,0.02,0.04,0.54,0.03,9.32,-0.68
44.92,0.01,-0.0,0.01,0.54,0.02,9.32,-0.43
44.94,0.0,0.0,-0.02,0.53,0.01,9.32,-0.37
44.96,-0.01,0.0,-0.04,0.52,0.01,9.31,-0.4
44.98,-0.04,-0.0,-0.04,0.52,-0.01,9.31,-0.3
44.99,-0.06,-0.01,-0.04,0.53,-0.02,9.3,0.05
45.01,-0.06,-0.02,-0.04,0.55,-0.01,9.29,0.47
45.03,-0.01,-0.03,-0.04,0.55,-0.0,9.31,0.76
45.05,0.02,-0.02,-0.01,0.55,0.01,9.32,0.79
45.07,0.04,-0.03,0.03,0.54,0.01,9.32,0.77
45.08,0.02,-0.03,0.06,0.53,0.01,9.32,0.9
45.1,-0.0,-0.04,0.06,0.53,0.0,9.32,1.18
45.12,-0.02,-0.05,0.05,0.52,-0.01,9.32,1.39
45.14,-0.02,-0.04,0.03,0.52,-0.01,9.31,1.33
45.16,-0.03,-0.0,-0.01,0.52,-0.01,9.31,1.05
45.17,-0.04,0.02,-0.04,0.52,-0.0,9.32,0.83
45.19,-0.05,0.02,-0.05,0.52,0.0,9.33,0.77
45.21,-0.04,-0.01,-0.05,0.52,0.01,9.33,0.8
45.23,-0.02,-0.02,-0.04,0.53,0.01,9.31,0.67
45.25,-0.01,-0.02,-0.02,0.54,0.01,9.3,0.32
45.26,0.01,-0.02,-0.02,0.55,0.02,9.29,-0.11
45.28,0.03,-0.02,-0.04,0.56,0.02,9.3,-0.37
45.3,0.04,-0.03,-0.05,0.56,0.02,9.31,-0.39
45.32,0.05,-0.03,-0.04,0.56,0.01,9.32,-0.37
45.34,0.03,-0.01,-0.03,0.56,-0.01,9.32,-0.51
45.35,0.0,-0.0,-0.03,0.56,-0.01,9.32,-0.78
45.37,-0.03,-0.02,-0.04,0.56,-0.01,9.32,-0.99
45.39,-0.06,-0.04,-0.03,0.55,0.0,9.32,-0.92
45.41,-0.06,-0.03,-0.02,0.55,0.01,9.31,-0.64
45.43,-0.06,0.01,-0.02,0.55,0.01,9.31,-0.41
45.44,-0.07,0.05,-0.02,0.55,0.01,9.31,-0.37
45.46,-0.08,0.06,-0.02,0.55,0.01,9.31,-0.4
45.48,-0.08,0.03,-0.02,0.54,0.01,9.3,-0.27
45.5,-0.06,0.01,-0.02,0.53,0.01,9.31,0.12
45.51,-0.04,0.01,-0.01,0.53,0.01,9.32,0.53
45.53,-0.03,0.01,-0.0,0.53,0.02,9.31,0.78
45.55,-0.01,0.01,0.01,0.54,0.02,9.3,0.79
45.57,0.02,0.01,0.02,0.54,0.02,9.29,0.78
45.59,0.03,0.01,0.01,0.54,0.02,9.3,0.93
45.6,0.02,0.01,0.01,0.53,0.02,9.3,1.22
45.62,-0.01,0.02,0.0,0.54,0.02,9.29,1.4
45.64,-0.03,0.02,0.0,0.55,0.01,9.29,1.3
45.66,-0.04,0.01,-0.01,0.56,0.01,9.28,1.02
45.68,-0.04,0.02,-0.03,0.56,0.01,9.27,0.8
45.69,-0.02,0.04,-0.05,0.57,0.01,9.28,0.77
45.71,0.0,0.03,-0.06,0.56,0.02,9.3,0.8
45.73,0.01,0.02,-0.05,0.55,0.02,9.3,0.65
45.75,0.0,-0.0,-0.04,0.54,0.02,9.3,0.25
45.77,-0.0,-0.01,-0.02,0.54,0.01,9.29,-0.15
45.78,0.0,-0.0,0.01,0.54,-0.01,9.28,-0.38
45.8,0.01,0.01,0.03,0.54,-0.01,9.28,-0.39
45.82,0.03,0.02,0.02,0.54,-0.01,9.3,-0.38
45.84,0.05,0.04,-0.01,0.54,-0.0,9.32,-0.54
45.86,0.06,0.04,-0.03,0.54,0.01,9.32,-0.83
45.87,0.06,0.04,-0.04,0.54,0.01,9.32,-1.0
45.89,0.04,0.04,-0.05,0.55,0.0,9.32,-0.89
45.91,0.01,0.03,-0.05,0.55,-0.0,9.31,-0.62
45.93,-0.01,0.01,-0.05,0.55,-0.01,9.29,-0.4
45.95,-0.02,0.0,-0.02,0.54,-0.01,9.29,-0.38
45.96,-0.04,-0.0,0.02,0.54,-0.01,9.3,-0.39
45.98,-0.05,-0.02,0.03,0.53,-0.02,9.32,-0.22
46.0,-0.05,-0.03,0.02,0.53,-0.02,9.33,0.17
46.02,-0.04,-0.04,0.0,0.54,-0.02,9.33,0.59
46.03,-0.03,-0.04,-0.01,0.54,-0.02,9.33,0.78
46.05,-0.02,-0.03,-0.02,0.53,-0.02,9.33,0.78
46.07,-0.03,-0.01,-0.03,0.53,-0.02,9.32,0.78
46.09,-0.05,0.0,-0.03,0.53,-0.02,9.32,0.97
46.11,-0.07,0.02,-0.03,0.54,-0.02,9.32,1.25
46.13,-0.08,0.03,-0.02,0.54,-0.02,9.31,1.4
46.14,-0.07,0.05,-0.0,0.54,-0.01,9.3,1.27
46.16,-0.04,0.07,0.01,0.52,-0.0,9.31,0.99
46.18,-0.02,0.07,0.02,0.52,-0.01,9.32,0.79
46.2,-0.01,0.05,0.02,0.52,-0.01,9.32,0.78
46.21,-0.02,0.03,-0.0,0.52,-0.02,9.33,0.79
46.23,-0.04,0.02,-0.03,0.53,-0.02,9.35,0.61
46.25,-0.06,0.02,-0.06,0.53,-0.01,9.35,0.23
46.27,-0.05,0.02,-0.06,0.53,-0.0,9.35,-0.21
46.29,-0.03,0.02,-0.05,0.53,-0.01,9.36,-0.39
46.3,-0.01,0.01,-0.03,0.54,-0.01,9.36,-0.38
46.32,-0.01,-0.01,-0.01,0.54,-0.01,9.35,-0.39
46.34,-0.03,-0.01,0.01,0.54,0.0,9.34,-0.59
46.36,-0.03,0.0,0.02,0.54,0.01,9.32,-0.87
46.38,-0.02,-0.02,0.03,0.54,0.02,9.31,-1.0
46.39,0.01,-0.06,0.02,0.53,0.02,9.3,-0.85
46.41,0.01,-0.07,0.02,0.53,0.01,9.3,-0.57
46.43,0.01,-0.07,0.02,0.54,0.0,9.3,-0.38
46.45,-0.0,-0.08,0.01,0.53,-0.01,9.3,-0.38
46.47,-0.02,-0.08,0.0,0.52,-0.0,9.3,-0.38
46.48,-0.03,-0.08,-0.0,0.52,0.0,9.29,-0.19
46.5,-0.04,-0.09,-0.02,0.52,0.01,9.29,0.23
46.52,-0.03,-0.09,-0.03,0.51,0.0,9.3,0.62
46.54,-0.02,-0.1,-0.02,0.52,-0.0,9.3,0.79
46.56,-0.01,-0.11,-0.0,0.52,-0.0,9.29,0.78
46.57,-0.02,-0.09,0.01,0.52,0.0,9.28,0.8
46.59,-0.03,-0.03,0.01,0.52,-0.0,9.27,0.99
46.61,-0.04,0.04,0.02,0.52,-0.01,9.27,1.29
46.63,-0.03,0.1,0.01,0.52,-0.01,9.29,1.4
46.65,-0.02,0.12,0.02,0.53,-0.01,9.3,1.23
46.66,0.0,0.11,0.04,0.54,-0.0,9.31,0.96
46.68,0.0,0.08,0.05,0.54,0.0,9.32,0.78
46.7,0.01,0.07,0.03,0.54,0.0,9.32,0.78
46.72,0.01,0.05,0.02,0.54,-0.0,9.32,0.78
46.73,-0.01,0.04,0.01,0.54,-0.0,9.31,0.57
46.75,-0.05,0.03,0.01,0.54,-0.01,9.31,0.15
46.77,-0.07,0.04,-0.01,0.53,-0.01,9.31,-0.25
46.79,-0.07,0.06,-0.01,0.53,-0.02,9.32,-0.4
46.81,-0.08,0.06,-0.02,0.53,-0.02,9.32,-0.37
46.82,-0.08,0.06,-0.02,0.53,-0.02,9.32,-0.4
46.84,-0.07,0.04,-0.03,0.54,-0.01,9.32,-0.62
46.86,-0.05,0.01,-0.05,0.54,-0.01,9.32,-0.9
46.88,-0.03,-0.01,-0.07,0.54,-0.01,9.32,-1.0
46.9,-0.01,-0.02,-0.08,0.54,-0.01,9.31,-0.82
46.91,0.0,-0.03,-0.06,0.54,-0.02,9.3,-0.53
46.93,0.0,-0.02,-0.05,0.54,-0.02,9.3,-0.38
46.95,-0.02,0.01,-0.05,0.54,-0.01,9.29,-0.39
46.97,-0.04,0.05,-0.04,0.54,0.01,9.3,-0.38
46.99,-0.03,0.08,-0.01,0.54,0.02,9.31,-0.13
47.0,-0.03,0.09,0.02,0.53,0.02,9.32,0.28
47.02,-0.02,0.08,0.04,0.52,0.01,9.33,0.67
47.04,-0.01,0.05,0.06,0.51,0.0,9.33,0.8
47.06,0.0,0.03,0.05,0.51,-0.01,9.33,0.77
47.08,0.0,0.0,0.02,0.51,-0.01,9.33,0.81
47.09,0.0,-0.0,-0.01,0.52,-0.01,9.33,1.04
47.11,0.01,0.01,-0.03,0.53,-0.01,9.33,1.31
47.13,0.02,0.02,-0.04,0.54,-0.01,9.33,1.39
47.15,0.0,0.02,-0.04,0.53,-0.0,9.32,1.2
47.17,-0.01,0.02,-0.04,0.53,-0.0,9.32,0.91
47.18,-0.0,0.03,-0.04,0.52,0.0,9.33,0.77
47.2,0.01,0.05,-0.05,0.52,0.0,9.34,0.79
47.22,0.01,0.07,-0.03,0.53,-0.0,9.34,0.77
47.24,-0.01,0.07,-0.0,0.54,-0.0,9.33,0.51
47.25,-0.02,0.06,0.0,0.54,0.0,9.32,0.1
47.27,-0.03,0.05,0.01,0.54,0.01,9.32,-0.27
47.29,-0.03,0.02,0.0,0.53,0.02,9.33,-0.4
47.31,-0.02,-0.01,-0.02,0.54,0.02,9.34,-0.37
47.33,0.02,-0.03,-0.06,0.55,0.01,9.35,-0.43
47.34,0.06,-0.01,-0.09,0.55,0.0,9.34,-0.65
47.36,0.08,0.01,-0.09,0.55,-0.0,9.33,-0.93
47.38,0.07,0.04,-0.06,0.55,-0.0,9.33,-0.99
47.4,0.06,0.05,-0.04,0.55,-0.01,9.32,-0.78
47.42,0.03,0.05,-0.01,0.54,0.0,9.3,-0.5
47.43,0.0,0.04,0.01,0.53,0.01,9.29,-0.37
47.45,-0.02,0.03,0.02,0.52,0.02,9.3,-0.39
47.47,-0.03,0.01,0.01,0.52,0.02,9.31,-0.36
47.49,-0.03,-0.02,0.01,0.51,0.01,9.31,-0.09
47.51,-0.04,-0.02,0.01,0.52,0.01,9.31,0.35
47.52,-0.04,-0.0,0.01,0.53,0.0,9.31,0.68
47.54,-0.02,0.04,0.02,0.53,-0.0,9.31,0.8
47.56,-0.02,0.07,0.01,0.53,-0.01,9.32,0.77
47.58,-0.03,0.08,-0.01,0.53,-0.01,9.32,0.83
47.6,-0.04,0.07,-0.02,0.53,-0.01,9.31,1.07
47.61,-0.05,0.07,-0.02,0.53,-0.01,9.3,1.33
47.63,-0.04,0.06,-0.02,0.53,-0.01,9.29,1.38
47.65,-0.01,0.04,-0.02,0.53,-0.01,9.28,1.17
47.67,-0.0,0.03,-0.03,0.54,-0.0,9.27,0.89
47.69,-0.01,0.03,-0.06,0.56,0.0,9.28,0.77
47.7,-0.0,0.02,-0.08,0.57,0.0,9.29,0.79
47.72,0.01,0.02,-0.1,0.57,0.0,9.3,0.75
47.74,0.01,0.02,-0.12,0.57,0.0,9.31,0.49
47.76,0.01,0.03,-0.12,0.56,0.01,9.32,0.03
47.77,-0.01,0.03,-0.11,0.55,0.01,9.32,-0.3
47.79,-0.02,0.02,-0.1,0.54,0.0,9.33,-0.4
47.81,-0.05,0.02,-0.07,0.54,0.0,9.33,-0.37
47.83,-0.08,0.01,-0.04,0.55,0.01,9.34,-0.43
47.85,-0.11,-0.0,-0.01,0.56,0.01,9.34,-0.7
47.86,-0.13,-0.02,0.01,0.56,0.0,9.34,-0.94
47.88,-0.12,-0.01,0.01,0.55,-0.01,9.35,-0.97
47.9,-0.11,0.01,0.01,0.54,-0.01,9.35,-0.75
47.92,-0.09,0.02,-0.01,0.53,-0.01,9.36,-0.47
47.94,-0.07,0.04,-0.03,0.51,-0.02,9.36,-0.37
47.95,-0.04,0.06,-0.05,0.51,-0.02,9.35,-0.4
47.97,-0.02,0.07,-0.04,0.51,-0.01,9.34,-0.34
47.99,-0.0,0.09,-0.02,0.51,-0.01,9.33,-0.04
48.01,0.0,0.1,0.01,0.51,0.01,9.32,0.4
48.03,0.0,0.1,0.04,0.52,0.01,9.32,0.72
48.04,0.01,0.08,0.06,0.52,0.01,9.31,0.8
48.06,0.03,0.06,0.05,0.52,0.01,9.31,0.77
48.08,0.05,0.04,0.01,0.52,0.01,9.31,0.84
48.1,0.06,0.02,-0.02,0.52,0.0,9.31,1.12
48.12,0.07,0.01,-0.03,0.52,-0.0,9.32,1.35
48.13,0.06,-0.01,-0.01,0.52,-0.01,9.32,1.36
48.15,0.05,-0.02,0.0,0.52,-0.01,9.32,1.13
48.17,0.02,-0.02,0.01,0.52,0.0,9.31,0.87
48.19,-0.03,-0.02,0.03,0.53,0.01,9.3,0.77
48.21,-0.07,-0.04,0.05,0.54,0.01,9.3,0.8
48.22,-0.08,-0.05,0.06,0.54,0.01,9.3,0.73
48.24,-0.1,-0.04,0.04,0.55,0.01,9.31,0.42
48.26,-0.1,-0.04,0.02,0.55,0.01,9.31,-0.04
48.28,-0.09,-0.03,0.0,0.54,0.01,9.3,-0.33
48.29,-0.05,-0.03,-0.01,0.54,0.01,9.29,-0.4
48.31,-0.01,-0.06,-0.0,0.54,0.01,9.28,-0.37
48.33,0.02,-0.08,0.01,0.54,0.01,9.28,-0.47
48.35,0.03,-0.09,0.02,0.54,0.02,9.28,-0.73
48.37,0.02,-0.08,0.02,0.54,0.02,9.3,-0.97
48.38,-0.0,-0.07,0.02,0.55,0.01,9.31,-0.95
48.4,-0.03,-0.04,0.02,0.55,0.0,9.32,-0.7
48.42,-0.05,-0.02,0.01,0.56,-0.0,9.32,-0.45
48.44,-0.05,-0.02,-0.0,0.54,-0.01,9.31,-0.37
48.46,-0.04,-0.02,-0.01,0.53,-0.01,9.3,-0.4
48.47,-0.04,-0.02,-0.01,0.52,-0.01,9.29,-0.31
48.49,-0.03,-0.02,0.0,0.51,-0.02,9.3,0.0
48.51,-0.04,-0.01,0.01,0.5,-0.02,9.3,0.44
48.53,-0.04,0.01,0.0,0.5,-0.01,9.31,0.74
48.55,-0.03,0.04,-0.02,0.5,-0.0,9.3,0.8
48.56,-0.02,0.06,-0.02,0.5,0.0,9.29,0.77
48.58,-0.01,0.07,-0.03,0.51,0.01,9.28,0.88
48.6,0.01,0.05,-0.03,0.52,0.03,9.27,1.15
48.62,0.03,0.03,-0.02,0.52,0.03,9.28,1.38
48.63,0.03,-0.01,0.01,0.53,0.04,9.29,1.35
48.65,0.02,-0.04,0.04,0.53,0.04,9.29,1.08
48.67,0.03,-0.05,0.02,0.53,0.05,9.31,0.84
48.69,0.03,-0.04,-0.02,0.52,0.04,9.31,0.77
48.71,0.02,-0.01,-0.05,0.52,0.02,9.31,0.8
48.73,-0.01,0.01,-0.05,0.51,0.01,9.3,0.7
48.74,-0.04,0.01,-0.05,0.52,0.01,9.3,0.35
48.76,-0.06,-0.01,-0.04,0.52,0.01,9.3,-0.07
48.78,-0.07,-0.0,-0.02,0.52,-0.0,9.32,-0.36
48.8,-0.06,0.02,0.01,0.52,-0.01,9.34,-0.39
48.82,-0.05,0.04,0.02,0.53,0.0,9.35,-0.37
48.83,-0.03,0.05,0.01,0.54,0.01,9.36,-0.49
48.85,-0.02,0.06,0.02,0.53,0.02,9.38,-0.77
48.87,-0.01,0.06,0.01,0.53,0.02,9.38,-0.98
48.89,-0.0,0.04,-0.01,0.54,0.02,9.36,-0.93
48.9,0.01,0.02,-0.01,0.55,0.03,9.34,-0.67
48.92,0.0,0.02,0.0,0.56,0.02,9.32,-0.43
48.94,-0.0,0.03,0.03,0.56,0.01,9.32,-0.37
48.96,0.0,0.05,0.05,0.57,0.01,9.32,-0.4
48.98,0.02,0.08,0.07,0.57,0.02,9.33,-0.3
49.0,0.02,0.09,0.09,0.56,0.03,9.33,0.08
49.01,0.01,0.08,0.12,0.54,0.02,9.33,0.49
49.03,-0.01,0.05,0.13,0.53,0.02,9.32,0.77
49.05,-0.01,0.02,0.13,0.53,0.01,9.31,0.79
49.07,0.01,0.0,0.11,0.54,0.01,9.31,0.77
49.08,0.03,-0.0,0.06,0.54,-0.0,9.31,0.9
49.1,0.03,0.01,0.02,0.54,-0.01,9.31,1.18
49.12,0.01,0.03,0.0,0.54,-0.01,9.31,1.39
49.14,-0.01,0.05,-0.02,0.54,-0.01,9.31,1.32
49.16,-0.02,0.06,-0.04,0.54,-0.0,9.32,1.05
49.17,-0.02,0.06,-0.06,0.54,0.01,9.31,0.82
49.19,0.0,0.03,-0.07,0.54,0.01,9.31,0.77
49.21,0.01,-0.0,-0.07,0.54,0.01,9.3,0.8
49.23,0.01,-0.04,-0.05,0.54,0.0,9.3,0.68
49.25,-0.0,-0.08,-0.03,0.54,-0.0,9.3,0.3
49.26,-0.03,-0.08,-0.01,0.53,-0.01,9.31,-0.11
49.28,-0.04,-0.06,-0.02,0.52,-0.02,9.3,-0.37
49.3,-0.03,-0.06,-0.02,0.52,-0.01,9.3,-0.39
49.32,-0.03,-0.05,-0.03,0.52,-0.0,9.3,-0.37
49.34,-0.02,-0.02,-0.04,0.51,0.01,9.3,-0.53
49.35,-0.02,0.02,-0.06,0.51,0.02,9.32,-0.8
49.37,-0.03,0.03,-0.08,0.52,0.02,9.33,-1.0
49.39,-0.03,0.02,-0.07,0.53,0.02,9.33,-0.91
49.41,-0.01,-0.0,-0.06,0.54,0.02,9.35,-0.62
49.43,0.02,-0.02,-0.05,0.54,0.01,9.35,-0.41
49.44,0.05,-0.02,-0.06,0.54,0.01,9.35,-0.37
49.46,0.05,-0.02,-0.05,0.54,0.01,9.34,-0.4
49.48,0.03,-0.01,-0.04,0.54,0.0,9.33,-0.25
49.5,0.01,-0.02,-0.04,0.54,-0.0,9.31,0.12
49.52,-0.01,-0.05,-0.04,0.55,0.0,9.29,0.55
49.53,-0.04,-0.06,-0.04,0.55,0.01,9.28,0.77
49.55,-0.07,-0.05,-0.03,0.55,0.01,9.3,0.79
49.57,-0.08,-0.03,-0.03,0.54,0.01,9.31,0.77
49.59,-0.07,-0.02,-0.04,0.53,0.01,9.32,0.94
49.6,-0.04,-0.02,-0.02,0.52,0.01,9.31,1.22
49.62,-0.03,-0.0,0.01,0.51,-0.0,9.3,1.4
49.64,-0.03,0.01,0.03,0.5,-0.01,9.3,1.3
49.66,-0.02,-0.01,0.04,0.5,-0.01,9.32,1.02
49.68,-0.02,-0.04,0.04,0.5,-0.02,9.33,0.8
49.69,-0.02,-0.04,0.03,0.5,-0.02,9.35,0.77
49.71,-0.01,-0.03,0.04,0.51,-0.01,9.35,0.8
49.73,0.0,-0.03,0.03,0.51,0.01,9.35,0.64
49.75,0.01,-0.02,0.0,0.51,0.01,9.35,0.28
49.77,0.02,-0.02,-0.04,0.51,0.01,9.35,-0.17
49.78,0.03,-0.02,-0.08,0.52,0.01,9.34,-0.38
49.8,0.04,-0.02,-0.1,0.53,0.0,9.33,-0.38
49.82,0.05,-0.02,-0.11,0.54,-0.01,9.31,-0.38
49.84,0.06,-0.02,-0.1,0.55,-0.01,9.31,-0.56
49.86,0.05,-0.02,-0.08,0.55,-0.01,9.3,-0.85
49.87,0.02,-0.02,-0.07,0.54,-0.01,9.3,-1.0
49.89,-0.02,0.01,-0.05,0.54,-0.02,9.31,-0.87
49.91,-0.05,0.05,-0.04,0.53,-0.02,9.31,-0.6
49.93,-0.06,0.08,-0.02,0.53,-0.03,9.31,-0.39
49.95,-0.06,0.09,-0.01,0.54,-0.03,9.32,-0.38
49.96,-0.06,0.08,-0.01,0.54,-0.03,9.32,-0.39
49.98,-0.04,0.07,-0.01,0.55,-0.02,9.31,-0.22
50.0,-0.02,0.07,-0.02,0.56,-0.01,9.31,0.17
50.02,-0.0,0.07,-0.02,0.56,0.01,9.31,0.59
50.04,-0.0,0.06,-0.02,0.56,0.02,9.31,0.79
50.05,0.0,0.04,-0.02,0.55,0.02,9.32,0.78
50.07,0.0,0.03,-0.03,0.54,0.02,9.32,0.78
50.09,-0.01,0.04,-0.02,0.53,0.01,9.32,0.96
50.11,-0.04,0.04,-0.01,0.53,-0.0,9.32,1.26
50.12,-0.07,0.04,0.01,0.52,-0.0,9.31,1.4
50.14,-0.07,0.05,0.02,0.52,-0.01,9.3,1.26
50.16,-0.08,0.07,0.03,0.52,-0.02,9.3,0.99
50.18,-0.09,0.08,0.03,0.52,-0.03,9.31,0.78
50.2,-0.08,0.08,0.04,0.53,-0.03,9.32,0.78
50.21,-0.04,0.06,0.03,0.53,-0.02,9.33,0.79
50.23,0.01,0.02,0.03,0.53,0.0,9.33,0.61
50.25,0.04,-0.02,0.03,0.53,0.02,9.32,0.2
50.27,0.05,-0.04,0.03,0.52,0.01,9.31,-0.21
50.29,0.05,-0.04,0.02,0.52,0.01,9.31,-0.39
50.3,0.05,-0.06,0.01,0.52,0.01,9.3,-0.38
50.32,0.04,-0.07,0.01,0.53,0.02,9.29,-0.39
50.34,0.02,-0.05,-0.0,0.53,0.03,9.3,-0.57
50.36,-0.01,-0.04,-0.02,0.54,0.03,9.3,-0.87
50.38,-0.02,-0.03,-0.03,0.54,0.02,9.31,-1.0
50.39,-0.04,-0.05,-0.04,0.55,0.02,9.31,-0.85
50.41,-0.05,-0.06,-0.02,0.55,0.02,9.33,-0.56
50.43,-0.05,-0.05,-0.01,0.54,0.01,9.33,-0.38
50.45,-0.05,-0.04,0.01,0.53,-0.0,9.32,-0.38
50.47,-0.06,-0.04,0.01,0.53,-0.01,9.3,-0.39
50.48,-0.06,-0.05,0.0,0.52,-0.0,9.29,-0.17
50.5,-0.05,-0.05,0.01,0.52,0.0,9.29,0.23
50.52,-0.03,-0.04,0.02,0.52,0.0,9.28,0.64
50.54,-0.01,-0.02,0.03,0.54,-0.0,9.29,0.79
50.56,0.02,0.01,0.04,0.54,-0.0,9.29,0.78
50.57,0.04,0.03,0.03,0.54,-0.0,9.29,0.8
50.59,0.05,0.03,0.03,0.54,-0.01,9.3,1.0
50.61,0.05,0.01,0.04,0.54,-0.01,9.3,1.29
50.63,0.06,-0.01,0.07,0.54,-0.01,9.32,1.4
50.64,0.07,-0.0,0.07,0.54,-0.01,9.33,1.25
50.66,0.05,-0.0,0.06,0.53,-0.0,9.34,0.94
50.68,0.01,-0.01,0.06,0.53,-0.0,9.35,0.78
50.7,-0.03,-0.03,0.06,0.52,-0.0,9.34,0.79
50.72,-0.07,-0.05,0.04,0.52,0.0,9.32,0.78
50.74,-0.1,-0.05,0.02,0.52,0.02,9.3,0.55
50.75,-0.1,-0.05,0.0,0.51,0.03,9.29,0.12
50.77,-0.09,-0.04,-0.01,0.51,0.03,9.29,-0.24
50.79,-0.08,-0.03,-0.02,0.52,0.03,9.31,-0.4
50.81,-0.06,-0.02,-0.03,0.53,0.03,9.32,-0.37
50.83,-0.05,0.01,-0.03,0.53,0.02,9.33,-0.41
50.84,-0.03,0.05,-0.03,0.52,0.02,9.33,-0.62
50.86,-0.02,0.09,-0.01,0.52,0.01,9.34,-0.91
50.88,-0.02,0.11,0.0,0.52,0.0,9.34,-1.0
50.9,-0.01,0.12,0.02,0.53,0.0,9.34,-0.82
50.91,0.0,0.12,0.03,0.53,0.01,9.33,-0.53
50.93,0.01,0.1,0.04,0.53,0.01,9.31,-0.37
50.95,0.01,0.07,0.04,0.54,0.01,9.31,-0.39
50.97,0.02,0.04,0.04,0.55,0.01,9.31,-0.37
50.99,0.03,0.02,0.05,0.55,0.02,9.3,-0.15
51.0,0.0,0.01,0.07,0.55,0.02,9.28,0.3
51.02,-0.03,0.01,0.11,0.54,0.03,9.25,0.65
51.04,-0.03,-0.01,0.14,0.53,0.03,9.24,0.8
51.06,-0.02,-0.04,0.15,0.53,0.03,9.24,0.77
51.08,-0.02,-0.05,0.12,0.53,0.02,9.24,0.82
51.09,-0.01,-0.04,0.07,0.53,0.02,9.25,1.04
51.11,-0.0,-0.02,0.02,0.53,0.02,9.26,1.31
51.13,0.01,-0.01,-0.02,0.53,0.02,9.29,1.39
51.15,0.03,-0.0,-0.05,0.54,0.02,9.32,1.2
51.17,0.03,0.0,-0.05,0.54,0.01,9.34,0.9
51.18,0.04,-0.0,-0.03,0.54,0.0,9.34,0.77
51.2,0.05,-0.02,-0.02,0.54,-0.01,9.33,0.79
51.22,0.03,-0.04,-0.01,0.54,-0.01,9.32,0.77
51.24,0.01,-0.03,-0.0,0.54,-0.0,9.31,0.51
51.26,0.01,-0.02,-0.0,0.54,0.01,9.31,0.08
51.27,0.02,-0.01,-0.02,0.53,0.02,9.32,-0.28
51.29,0.03,-0.0,-0.04,0.53,0.02,9.34,-0.4
51.31,0.04,-0.02,-0.04,0.52,0.02,9.34,-0.37
51.33,0.05,-0.02,-0.03,0.52,0.02,9.33,-0.42
51.35,0.04,-0.02,-0.03,0.52,0.02,9.33,-0.67
51.36,0.02,-0.01,-0.05,0.52,0.01,9.34,-0.92
51.38,-0.0,0.02,-0.06,0.53,0.01,9.34,-0.98
51.4,-0.01,0.04,-0.06,0.54,0.0,9.33,-0.78
51.42,-0.01,0.06,-0.05,0.54,-0.0,9.32,-0.49
51.43,-0.01,0.07,-0.04,0.55,-0.01,9.32,-0.37
51.45,-0.03,0.07,-0.04,0.56,-0.01,9.32,-0.39
51.47,-0.06,0.05,-0.04,0.56,-0.01,9.31,-0.36
51.49,-0.06,0.03,-0.03,0.56,-0.01,9.31,-0.09
51.51,-0.06,0.02,0.0,0.55,-0.01,9.31,0.35
51.52,-0.07,0.01,0.04,0.54,0.0,9.31,0.7
51.54,-0.05,-0.01,0.08,0.54,0.01,9.3,0.8
51.56,-0.01,-0.05,0.12,0.55,0.0,9.3,0.77
51.58,0.01,-0.07,0.12,0.55,-0.0,9.3,0.83
51.6,0.0,-0.05,0.07,0.55,-0.0,9.32,1.08
51.61,-0.01,-0.01,0.01,0.55,-0.01,9.33,1.33
51.63,-0.01,0.01,-0.03,0.55,-0.01,9.34,1.38
51.65,-0.01,-0.01,-0.05,0.54,-0.01,9.35,1.17
51.67,-0.03,-0.02,-0.06,0.54,-0.0,9.33,0.89
51.69,-0.05,0.01,-0.08,0.54,0.01,9.31,0.77
51.7,-0.07,0.05,-0.08,0.53,0.02,9.29,0.79
51.72,-0.06,0.06,-0.08,0.52,0.02,9.28,0.74
51.74,-0.02,0.04,-0.08,0.52,0.01,9.29,0.47
51.76,0.02,0.02,-0.05,0.51,0.01,9.3,0.0
51.78,0.05,0.02,-0.01,0.51,0.0,9.31,-0.31
51.79,0.07,0.02,0.0,0.51,-0.01,9.31,-0.4
51.81,0.06,0.01,-0.01,0.51,-0.01,9.32,-0.37
51.83,0.03,0.01,-0.02,0.51,-0.01,9.32,-0.44
51.85,0.0,0.01,-0.02,0.52,-0.01,9.32,-0.7
51.87,-0.03,-0.01,-0.01,0.52,-0.01,9.32,-0.95
51.88,-0.05,-0.01,0.0,0.51,-0.01,9.33,-0.97
51.9,-0.06,0.0,-0.0,0.51,-0.0,9.34,-0.73
51.92,-0.06,0.03,-0.0,0.51,-0.0,9.36,-0.48
51.94,-0.05,0.05,0.02,0.52,0.0,9.38,-0.37
51.95,-0.04,0.05,0.05,0.52,0.01,9.37,-0.4
51.97,-0.03,0.05,0.06,0.52,0.01,9.35,-0.33
51.99,-0.02,0.04,0.06,0.53,0.01,9.34,-0.04
52.01,-0.01,0.05,0.05,0.52,0.01,9.35,0.4
52.03,-0.01,0.05,0.03,0.52,0.01,9.35,0.72
52.04,-0.01,0.02,0.01,0.52,0.0,9.34,0.8
52.06,-0.0,-0.02,0.0,0.53,0.0,9.33,0.77
52.08,-0.01,-0.04,-0.01,0.53,0.01,9.32,0.85
52.1,-0.02,-0.02,-0.03,0.53,0.01,9.32,1.12
52.12,-0.04,0.01,-0.05,0.53,0.0,9.32,1.36
52.13,-0.07,0.05,-0.05,0.52,-0.01,9.32,1.37
52.15,-0.07,0.06,-0.04,0.53,-0.02,9.31,1.12
52.17,-0.05,0.05,-0.03,0.55,-0.01,9.31,0.85
52.19,-0.02,0.05,-0.01,0.56,-0.0,9.32,0.77
52.21,-0.01,0.04,0.01,0.56,0.0,9.34,0.8
52.22,-0.01,0.03,0.03,0.56,0.01,9.35,0.72
52.24,-0.03,0.02,0.04,0.55,0.01,9.35,0.4
52.26,-0.04,-0.01,0.05,0.55,0.01,9.35,-0.02
52.28,-0.04,-0.04,0.06,0.55,0.01,9.35,-0.34
52.29,-0.05,-0.05,0.04,0.55,0.01,9.34,-0.4
52.31,-0.07,-0.05,0.01,0.55,0.0,9.33,-0.37
52.33,-0.06,-0.05,-0.01,0.55,0.0,9.31,-0.47
52.35,-0.03,-0.05,-0.03,0.54,-0.0,9.3,-0.73
52.37,0.0,-0.04,-0.02,0.54,-0.0,9.29,-0.97
52.38,0.02,-0.04,0.0,0.54,-0.0,9.29,-0.95
52.4,0.02,-0.04,0.03,0.54,0.0,9.3,-0.7
52.42,0.01,-0.02,0.04,0.54,0.01,9.32,-0.44
52.44,0.01,0.01,0.05,0.53,0.01,9.32,-0.37
52.46,0.02,0.03,0.04,0.52,0.0,9.3,-0.4
52.47,0.02,0.03,0.04,0.52,0.0,9.3,-0.32
52.49,0.02,0.03,0.02,0.52,0.01,9.29,0.03
52.51,0.02,0.03,-0.01,0.52,0.0,9.3,0.44
52.53,0.04,0.05,-0.04,0.53,0.0,9.32,0.75
52.55,0.06,0.06,-0.06,0.53,0.0,9.34,0.8
52.56,0.05,0.06,-0.06,0.53,0.0,9.35,0.77
52.58,0.02,0.05,-0.04,0.52,0.01,9.36,0.88
52.6,-0.03,0.04,-0.03,0.51,0.01,9.34,1.15
52.62,-0.06,0.05,-0.02,0.5,0.02,9.33,1.38
52.64,-0.05,0.07,-0.01,0.5,0.02,9.32,1.34
52.65,-0.03,0.09,0.0,0.51,0.02,9.33,1.08
52.67,-0.02,0.11,0.01,0.53,0.01,9.33,0.83
52.69,-0.03,0.11,0.01,0.54,-0.01,9.34,0.77
52.71,-0.07,0.1,0.0,0.54,-0.01,9.34,0.8
52.72,-0.11,0.1,-0.01,0.54,-0.02,9.34,0.71
52.74,-0.11,0.11,-0.01,0.54,-0.02,9.32,0.35
52.76,-0.09,0.1,-0.0,0.53,-0.01,9.31,-0.09
52.78,-0.06,0.07,0.03,0.53,-0.0,9.31,-0.36
52.8,-0.04,0.04,0.04,0.53,0.0,9.31,-0.39
52.81,-0.02,0.01,0.03,0.53,-0.0,9.31,-0.37
52.83,0.01,-0.02,0.01,0.53,-0.01,9.3,-0.5
52.85,0.02,-0.05,-0.01,0.52,-0.02,9.29,-0.77
52.87,-0.0,-0.06,-0.02,0.52,-0.02,9.3,-0.99
52.89,-0.02,-0.05,-0.01,0.52,-0.02,9.3,-0.93
52.9,-0.02,-0.03,0.0,0.51,-0.03,9.31,-0.67
52.92,-0.03,-0.02,0.01,0.51,-0.03,9.31,-0.43
52.94,-0.03,-0.03,0.02,0.52,-0.03,9.31,-0.37
52.96,-0.04,-0.04,0.03,0.52,-0.02,9.32,-0.4
52.98,-0.05,-0.04,0.05,0.52,-0.01,9.32,-0.28
53.0,-0.06,-0.03,0.06,0.53,-0.01,9.31,0.08
53.01,-0.05,-0.01,0.06,0.53,-0.02,9.31,0.51
53.03,-0.03,0.01,0.06,0.53,-0.02,9.3,0.76
53.05,-0.04,0.01,0.06,0.54,-0.02,9.29,0.79
53.07,-0.06,0.0,0.04,0.56,-0.02,9.29,0.77
53.09,-0.09,-0.01,0.01,0.56,-0.02,9.31,0.91
53.1,-0.11,-0.01,-0.02,0.55,-0.02,9.33,1.18
53.12,-0.11,-0.01,-0.04,0.54,-0.02,9.35,1.39
53.14,-0.1,-0.02,-0.03,0.53,-0.01,9.36,1.31
53.16,-0.09,-0.02,-0.0,0.52,-0.0,9.35,1.05
53.18,-0.09,-0.01,0.01,0.52,0.01,9.33,0.81
53.19,-0.06,0.03,-0.0,0.51,0.02,9.31,0.77
53.21,-0.02,0.07,-0.03,0.5,0.02,9.3,0.8
53.23,0.0,0.07,-0.03,0.49,0.02,9.28,0.67
53.25,0.01,0.06,-0.02,0.5,0.02,9.27,0.3
53.26,-0.0,0.03,0.01,0.51,0.02,9.27,-0.13
53.28,-0.01,0.02,0.03,0.53,0.01,9.28,-0.37
53.3,-0.0,0.04,0.03,0.56,0.0,9.31,-0.39
53.32,0.01,0.05,0.02,0.57,-0.01,9.33,-0.37
53.34,0.01,0.05,0.01,0.57,-0.01,9.34,-0.53
53.35,-0.02,0.04,0.01,0.55,-0.01,9.35,-0.82
53.37,-0.04,0.06,0.02,0.53,-0.02,9.35,-0.99
53.39,-0.04,0.07,0.03,0.52,-0.01,9.34,-0.9
53.41,-0.02,0.06,0.04,0.52,-0.01,9.34,-0.63
53.43,-0.01,0.05,0.04,0.52,0.0,9.34,-0.4
53.44,-0.01,0.06,0.05,0.52,0.01,9.34,-0.37
53.46,-0.01,0.07,0.04,0.52,0.02,9.33,-0.4
53.48,-0.01,0.06,0.01,0.52,0.02,9.32,-0.25
53.5,-0.02,0.05,-0.03,0.54,0.03,9.31,0.12
53.52,-0.01,0.04,-0.05,0.55,0.02,9.29,0.55
53.53,-0.01,0.02,-0.05,0.56,0.02,9.28,0.78
53.55,0.01,-0.02,-0.03,0.55,0.01,9.27,0.79
53.57,0.03,-0.01,-0.02,0.53,-0.0,9.28,0.78
53.59,0.04,0.01,-0.02,0.51,-0.01,9.29,0.93
53.61,0.05,0.01,-0.03,0.51,-0.01,9.3,1.23
53.62,0.06,-0.01,-0.04,0.51,0.01,9.31,1.4
53.64,0.03,-0.02,-0.02,0.51,0.02,9.3,1.29
53.66,-0.01,-0.01,0.02,0.5,0.02,9.29,1.0
53.68,-0.04,0.01,0.05,0.51,0.03,9.3,0.8
53.7,-0.06,0.03,0.06,0.52,0.03,9.3,0.78
53.71,-0.07,0.02,0.03,0.52,0.03,9.31,0.8
53.73,-0.1,-0.0,0.01,0.52,0.02,9.32,0.62
53.75,-0.13,-0.0,-0.02,0.52,0.02,9.33,0.25
53.77,-0.13,0.0,-0.04,0.53,0.01,9.34,-0.19
53.78,-0.11,0.0,-0.07,0.53,-0.0,9.34,-0.38
53.8,-0.09,0.01,-0.07,0.54,-0.0,9.34,-0.38
53.82,-0.08,0.03,-0.05,0.54,-0.0,9.35,-0.38
53.84,-0.07,0.03,-0.02,0.55,0.0,9.34,-0.56
53.86,-0.07,0.02,-0.01,0.54,-0.0,9.34,-0.85
53.87,-0.08,0.0,-0.0,0.53,-0.01,9.34,-1.0
53.89,-0.08,-0.02,-0.0,0.54,-0.01,9.34,-0.87
53.91,-0.08,-0.01,-0.01,0.54,-0.0,9.34,-0.59
53.93,-0.07,0.01,-0.02,0.54,0.0,9.33,-0.4
53.95,-0.05,0.04,-0.03,0.53,0.01,9.32,-0.38
53.96,-0.03,0.05,-0.06,0.52,0.02,9.31,-0.39
53.98,-0.01,0.05,-0.08,0.52,0.03,9.3,-0.21
54.0,0.0,0.06,-0.07,0.52,0.02,9.3,0.17
54.02,0.0,0.06,-0.06,0.53,0.02,9.3,0.61
54.04,0.0,0.06,-0.04,0.53,0.02,9.32,0.79
54.05,0.0,0.05,-0.02,0.53,0.02,9.33,0.78
54.07,-0.01,0.03,-0.02,0.53,0.01,9.33,0.78
54.09,-0.04,0.01,-0.01,0.53,0.0,9.32,0.97
54.11,-0.04,0.02,-0.01,0.53,-0.0,9.32,1.27
54.13,-0.04,0.05,-0.03,0.53,-0.0,9.33,1.4
54.14,-0.04,0.07,-0.04,0.53,-0.0,9.34,1.25
54.16,-0.03,0.08,-0.07,0.54,0.0,9.34,0.97
54.18,-0.03,0.07,-0.11,0.54,0.0,9.34,0.78
54.2,-0.02,0.06,-0.14,0.54,-0.0,9.34,0.78
54.22,-0.02,0.05,-0.13,0.53,-0.0,9.33,0.79
54.23,0.0,0.04,-0.11,0.52,-0.01,9.31,0.59
54.25,0.01,0.04,-0.08,0.52,-0.01,9.31,0.17
54.27,0.0,0.04,-0.04,0.53,-0.01,9.29,-0.21
54.29,-0.01,0.04,-0.0,0.54,-0.01,9.29,-0.39
54.3,-0.01,0.04,0.03,0.54,-0.01,9.3,-0.38
54.32,-0.04,0.03,0.05,0.54,0.0,9.31,-0.4
54.34,-0.06,0.0,0.05,0.55,0.01,9.31,-0.59
54.36,-0.07,-0.01,0.05,0.56,0.02,9.3,-0.89
54.38,-0.06,-0.01,0.05,0.56,0.02,9.29,-1.0
54.39,-0.05,0.01,0.04,0.56,0.03,9.27,-0.85
54.41,-0.02,0.03,0.03,0.56,0.02,9.26,-0.56
54.43,-0.01,0.03,0.02,0.55,0.01,9.26,-0.38
54.45,-0.0,0.03,-0.0,0.54,0.0,9.29,-0.38
54.47,-0.0,0.05,-0.02,0.52,-0.0,9.32,-0.38
54.48,0.01,0.07,-0.01,0.52,-0.0,9.35,-0.17
54.5,0.05,0.06,0.01,0.52,0.0,9.36,0.25
54.52,0.08,0.03,0.03,0.53,-0.0,9.37,0.64
54.54,0.08,0.02,0.04,0.54,-0.01,9.37,0.8
54.56,0.04,-0.0,0.05,0.55,-0.01,9.36,0.77
54.57,0.0,-0.02,0.05,0.55,-0.01,9.35,0.8
54.59,-0.0,-0.04,0.04,0.55,-0.01,9.35,1.02
54.61,0.02,-0.04,0.04,0.54,-0.02,9.36,1.29
54.63,0.03,-0.03,0.02,0.53,-0.01,9.35,1.4
54.65,0.04,-0.03,0.01,0.53,-0.01,9.34,1.23
54.66,0.04,-0.02,0.01,0.53,-0.01,9.33,0.93
54.68,0.03,-0.01,0.02,0.53,-0.01,9.32,0.78
54.7,0.02,-0.0,0.01,0.53,-0.01,9.32,0.79
54.72,0.01,-0.0,-0.01,0.53,-0.02,9.32,0.78
54.74,0.01,0.02,-0.02,0.53,-0.01,9.32,0.55
54.75,0.01,0.05,-0.04,0.53,-0.01,9.32,0.12
54.77,0.0,0.07,-0.06,0.53,0.0,9.31,-0.25
54.79,0.0,0.06,-0.1,0.54,0.01,9.3,-0.4
54.81,0.02,0.06,-0.12,0.55,0.0,9.28,-0.37
54.82,0.04,0.07,-0.1,0.56,-0.01,9.28,-0.4
54.84,0.05,0.06,-0.05,0.55,-0.01,9.3,-0.64
54.86,0.04,0.04,-0.02,0.54,-0.02,9.31,-0.9
54.88,0.02,0.01,-0.01,0.54,-0.01,9.32,-0.99
54.9,-0.0,-0.01,-0.02,0.54,-0.01,9.31,-0.82
54.92,-0.02,-0.03,-0.02,0.54,-0.01,9.31,-0.51
54.93,-0.03,-0.03,-0.03,0.55,-0.01,9.3,-0.37
54.95,-0.03,-0.03,-0.03,0.55,-0.01,9.3,-0.39
54.97,-0.01,-0.02,-0.03,0.55,-0.01,9.29,-0.37
54.99,0.01,-0.01,-0.02,0.54,-0.01,9.28,-0.13
55.01,0.01,-0.0,-0.02,0.54,-0.01,9.28,0.32
55.02,0.01,-0.0,-0.01,0.54,-0.01,9.3,0.67
55.04,-0.0,0.01,-0.01,0.54,-0.01,9.31,0.8
55.06,-0.02,0.03,0.0,0.54,-0.01,9.31,0.77
55.08,0.0,0.04,0.03,0.53,0.0,9.32,0.82
55.09,0.03,0.05,0.05,0.52,0.0,9.33,1.05
55.11,0.03,0.05,0.06,0.52,-0.0,9.34,1.32
55.13,0.03,0.04,0.08,0.53,-0.0,9.34,1.39
55.15,0.02,0.02,0.08,0.54,0.0,9.33,1.18
55.17,-0.0,-0.02,0.06,0.55,0.01,9.31,0.91
55.18,-0.03,-0.03,0.03,0.55,0.02,9.3,0.77
55.2,-0.04,-0.02,-0.0,0.55,0.02,9.29,0.79
55.22,-0.05,-0.02,-0.04,0.56,0.02,9.29,0.76
55.24,-0.03,-0.02,-0.06,0.57,0.03,9.29,0.51
55.26,-0.02,-0.02,-0.07,0.56,0.02,9.3,0.05
55.27,-0.01,-0.02,-0.08,0.55,0.02,9.31,-0.28
55.29,-0.0,0.01,-0.07,0.54,0.01,9.32,-0.4
55.31,0.0,0.03,-0.06,0.53,0.01,9.32,-0.37
55.33,0.02,0.04,-0.04,0.53,0.0,9.32,-0.43
55.35,0.04,0.02,-0.04,0.52,-0.0,9.32,-0.67
55.36,0.05,-0.01,-0.04,0.52,-0.01,9.31,-0.93
55.38,0.05,-0.02,-0.04,0.53,-0.01,9.3,-0.99
55.4,0.04,-0.03,-0.03,0.54,-0.0,9.3,-0.77
55.42,0.02,-0.03,-0.02,0.54,0.0,9.32,-0.5
55.44,-0.01,-0.04,-0.02,0.53,-0.0,9.34,-0.37
55.45,-0.04,-0.03,-0.01,0.52,-0.01,9.35,-0.39
55.47,-0.06,-0.01,0.01,0.52,-0.01,9.36,-0.35
55.49,-0.08,0.01,0.01,0.52,-0.01,9.37,-0.07
55.51,-0.09,0.01,0.0,0.52,-0.0,9.36,0.35
55.53,-0.06,-0.0,0.01,0.51,-0.0,9.34,0.71
55.54,-0.01,-0.02,0.0,0.5,0.01,9.32,0.8
55.56,0.01,-0.01,-0.02,0.51,0.01,9.3,0.77
