Time[s],RateRoll[°/s],RatePitch[°/s],RateYaw[°/s],AccX[m/s^2],AccY[m/s^2],AccZ[m/s^2],HX711_readings,Applied_Torque[Nm]
527.6,-0.12,0.07,-0.02,1.48,-9.65,1.09,6063567.0,0.8
527.7,-0.12,0.06,-0.04,1.47,-9.66,1.1,6063511.0,0.8
527.81,-0.13,0.02,-0.05,1.45,-9.67,1.11,6063593.0,0.8
527.92,-0.15,-0.01,-0.04,1.45,-9.67,1.11,6063824.0,0.8
528.03,-0.19,-0.01,-0.01,1.45,-9.67,1.1,6064038.0,0.8
528.13,-0.21,0.01,0.01,1.45,-9.66,1.08,6064246.0,0.8
528.24,-0.2,0.03,0.01,1.45,-9.65,1.06,6064384.0,0.8
528.35,-0.18,0.04,-0.01,1.46,-9.65,1.05,6064413.0,0.8
528.46,-0.16,0.06,-0.0,1.46,-9.64,1.05,6064365.0,0.8
528.56,-0.12,0.07,0.03,1.46,-9.64,1.04,6064350.0,0.8
528.67,-0.1,0.04,0.05,1.46,-9.63,1.05,6064397.0,0.8
528.78,-0.11,0.0,0.04,1.45,-9.63,1.05,6064420.0,0.8
528.88,-0.13,-0.03,0.01,1.44,-9.63,1.05,6064366.0,0.8
528.99,-0.15,-0.04,-0.02,1.44,-9.62,1.07,6064169.0,0.8
529.1,-0.13,-0.05,-0.04,1.44,-9.62,1.09,6063842.0,0.8
529.21,-0.11,-0.06,-0.06,1.44,-9.63,1.1,6063540.0,0.8
529.31,-0.11,-0.05,-0.07,1.44,-9.63,1.11,6063280.0,0.8
529.42,-0.12,-0.01,-0.05,1.44,-9.65,1.1,6063086.0,0.8
529.53,-0.1,0.01,-0.03,1.43,-9.65,1.1,6062643.0,0.8
529.64,-0.1,0.01,-0.0,1.44,-9.65,1.09,6062378.0,0.8
529.75,-0.12,-0.02,0.02,1.44,-9.64,1.08,6062208.0,0.8
529.86,-0.12,-0.05,0.04,1.44,-9.65,1.06,6062058.0,0.8
529.96,-0.1,-0.07,0.05,1.44,-9.66,1.05,6061959.0,0.8
530.07,-0.1,-0.08,0.05,1.45,-9.66,1.05,6061959.0,0.8
530.18,-0.12,-0.06,0.03,1.46,-9.66,1.07,6062373.0,0.8
530.29,-0.14,-0.03,-0.0,1.46,-9.66,1.08,6062601.0,0.8
530.39,-0.14,-0.0,-0.04,1.45,-9.66,1.08,6062785.0,0.8
530.5,-0.13,0.01,-0.04,1.44,-9.65,1.07,6062952.0,0.8
530.61,-0.12,0.0,-0.04,1.43,-9.64,1.08,6063118.0,0.8
530.72,-0.13,-0.02,-0.05,1.43,-9.63,1.1,6063221.0,0.8
530.83,-0.15,-0.03,-0.05,1.43,-9.62,1.11,6063204.0,0.8
530.93,-0.17,-0.03,-0.03,1.44,-9.62,1.11,6063240.0,0.8
531.04,-0.19,-0.02,-0.04,1.45,-9.62,1.1,6063259.0,0.8
531.15,-0.2,-0.03,-0.04,1.44,-9.64,1.09,6063337.0,0.8
531.26,-0.19,-0.05,-0.03,1.43,-9.64,1.09,6063503.0,0.8
531.37,-0.18,-0.07,-0.02,1.42,-9.65,1.09,6063951.0,0.8
531.48,-0.18,-0.07,-0.01,1.41,-9.65,1.1,6063918.0,0.8
531.59,-0.2,-0.06,-0.01,1.41,-9.65,1.1,6063684.0,0.8
531.7,-0.22,-0.07,-0.0,1.41,-9.64,1.09,6063393.0,0.8
531.8,-0.21,-0.07,-0.0,1.41,-9.64,1.07,6063318.0,0.8
531.91,-0.2,-0.04,-0.01,1.41,-9.64,1.06,6063383.0,0.8
532.02,-0.17,-0.01,-0.01,1.42,-9.63,1.05,6063712.0,0.8
532.13,-0.12,-0.0,0.01,1.43,-9.63,1.05,6063835.0,0.8
532.24,-0.09,-0.0,0.02,1.45,-9.63,1.08,6063892.0,0.8
532.35,-0.09,-0.0,0.01,1.44,-9.62,1.1,6063929.0,0.8
532.45,-0.11,-0.01,-0.03,1.43,-9.62,1.1,6064065.0,0.8
532.56,-0.13,-0.03,-0.04,1.43,-9.61,1.08,6064230.0,0.8
532.67,-0.15,-0.03,-0.01,1.43,-9.61,1.08,6064224.0,0.8
532.78,-0.16,0.0,0.04,1.44,-9.62,1.09,6064114.0,0.8
532.89,-0.16,0.04,0.05,1.46,-9.63,1.09,6064038.0,0.8
532.99,-0.17,0.06,0.04,1.47,-9.63,1.08,6063956.0,0.8
533.1,-0.17,0.06,0.03,1.47,-9.63,1.07,6063898.0,0.8
533.21,-0.16,0.04,0.03,1.46,-9.62,1.06,6063790.0,0.8
533.31,-0.15,0.01,0.04,1.45,-9.63,1.06,6063551.0,0.8
533.42,-0.13,-0.01,0.02,1.43,-9.64,1.06,6063557.0,0.8
533.53,-0.1,-0.05,-0.02,1.42,-9.65,1.07,6063524.0,0.8
533.63,-0.07,-0.07,-0.07,1.41,-9.65,1.09,6063554.0,0.8
533.74,-0.07,-0.09,-0.09,1.42,-9.65,1.1,6063585.0,0.8
533.85,-0.11,-0.11,-0.08,1.43,-9.65,1.1,6063558.0,0.8
533.95,-0.14,-0.1,-0.06,1.44,-9.65,1.1,6063457.0,0.8
534.06,-0.13,-0.07,-0.03,1.44,-9.65,1.1,6063385.0,0.8
534.17,-0.12,-0.03,-0.0,1.44,-9.64,1.1,6063321.0,0.8
534.28,-0.12,-0.01,0.02,1.44,-9.63,1.1,6063278.0,0.8
534.38,-0.11,0.01,0.04,1.44,-9.62,1.1,6063216.0,0.8
534.49,-0.11,0.03,0.03,1.44,-9.63,1.09,6063129.0,0.8
534.6,-0.12,0.03,0.02,1.44,-9.64,1.09,6063022.0,0.8
534.7,-0.12,0.01,-0.0,1.45,-9.65,1.1,6062913.0,0.8
534.81,-0.13,-0.01,-0.03,1.46,-9.66,1.1,6062841.0,0.8
534.92,-0.12,-0.02,-0.04,1.46,-9.67,1.1,6062690.0,0.8
535.03,-0.1,-0.03,-0.03,1.44,-9.68,1.08,6062562.0,0.8
535.13,-0.09,-0.03,-0.03,1.45,-9.68,1.06,6062558.0,0.8
535.24,-0.09,-0.01,-0.05,1.46,-9.69,1.06,6062631.0,0.8
535.35,-0.1,0.03,-0.08,1.46,-9.69,1.06,6062911.0,0.8
535.45,-0.12,0.06,-0.08,1.45,-9.68,1.08,6063030.0,0.8
535.56,-0.13,0.05,-0.04,1.44,-9.67,1.09,6063086.0,0.8
535.67,-0.13,0.01,-0.01,1.45,-9.66,1.09,6063123.0,0.8
535.77,-0.14,-0.02,-0.01,1.45,-9.66,1.09,6063080.0,0.8
535.88,-0.16,-0.04,-0.02,1.44,-9.66,1.09,6063009.0,0.8
535.99,-0.18,-0.05,-0.02,1.44,-9.65,1.09,6062921.0,0.8
536.09,-0.18,-0.06,0.0,1.43,-9.64,1.09,6062885.0,0.8
536.2,-0.18,-0.07,0.01,1.44,-9.63,1.09,6062856.0,0.8
536.31,-0.16,-0.1,-0.01,1.44,-9.62,1.09,6062859.0,0.8
536.41,-0.15,-0.09,-0.04,1.44,-9.61,1.09,6062958.0,0.8
536.52,-0.15,-0.07,-0.05,1.42,-9.62,1.09,6062995.0,0.8
536.63,-0.15,-0.06,-0.04,1.41,-9.63,1.09,6063022.0,0.8
536.74,-0.14,-0.06,-0.02,1.42,-9.63,1.08,6063117.0,0.8
536.84,-0.14,-0.04,0.0,1.44,-9.64,1.07,6063164.0,0.8
536.95,-0.15,-0.02,0.02,1.45,-9.65,1.06,6063181.0,0.8
537.06,-0.14,-0.01,0.03,1.46,-9.64,1.06,6063169.0,0.8
537.16,-0.14,0.01,0.03,1.47,-9.63,1.07,6063164.0,0.8
537.27,-0.12,0.01,0.02,1.47,-9.62,1.08,6063173.0,0.8
537.38,-0.1,0.0,0.01,1.47,-9.63,1.1,6063136.0,0.8
537.49,-0.09,-0.01,-0.0,1.47,-9.63,1.11,6063077.0,0.8
537.59,-0.07,-0.01,-0.01,1.48,-9.64,1.1,6063024.0,0.8
537.7,-0.07,0.01,-0.0,1.47,-9.63,1.09,6062954.0,0.8
537.81,-0.07,0.03,0.0,1.46,-9.64,1.08,6062833.0,0.8
537.91,-0.07,0.03,0.01,1.44,-9.64,1.09,6062653.0,0.8
538.02,-0.09,0.05,0.01,1.43,-9.64,1.1,6062430.0,0.8
538.13,-0.12,0.08,0.02,1.43,-9.63,1.1,6062293.0,0.8
538.23,-0.15,0.07,0.06,1.42,-9.63,1.1,6062131.0,0.8
538.34,-0.17,0.05,0.07,1.42,-9.63,1.09,6062149.0,0.8
538.45,-0.19,0.02,0.05,1.43,-9.62,1.08,6062134.0,0.8
538.55,-0.18,-0.0,0.03,1.43,-9.61,1.08,6062093.0,0.8
538.66,-0.16,-0.02,-0.01,1.41,-9.61,1.07,6062111.0,0.8
538.77,-0.12,-0.02,-0.06,1.4,-9.62,1.07,6062232.0,0.8
538.87,-0.11,-0.0,-0.09,1.41,-9.63,1.07,6062314.0,0.8
538.98,-0.11,0.02,-0.1,1.42,-9.63,1.09,6062399.0,0.8
539.09,-0.12,0.03,-0.09,1.44,-9.63,1.11,6062384.0,0.8
539.2,-0.14,0.01,-0.06,1.45,-9.62,1.11,6062370.0,0.8
539.3,-0.15,-0.02,-0.03,1.46,-9.62,1.1,6062332.0,0.8
539.41,-0.14,-0.04,-0.02,1.46,-9.62,1.09,6062257.0,0.8
539.52,-0.16,-0.06,-0.02,1.46,-9.63,1.08,6062259.0,0.8
539.62,-0.18,-0.08,-0.03,1.46,-9.64,1.06,6062314.0,0.8
539.73,-0.16,-0.08,-0.04,1.45,-9.65,1.07,6062333.0,0.8
539.84,-0.13,-0.07,-0.03,1.44,-9.65,1.09,6062329.0,0.8
539.94,-0.15,-0.08,-0.01,1.43,-9.65,1.11,6062358.0,0.8
540.05,-0.18,-0.08,0.01,1.43,-9.66,1.11,6062337.0,0.8
540.16,-0.19,-0.05,0.02,1.44,-9.66,1.11,6062374.0,0.8
540.27,-0.16,-0.02,0.02,1.45,-9.66,1.11,6062418.0,0.8
540.37,-0.13,0.01,0.03,1.46,-9.65,1.11,6062421.0,0.8
540.48,-0.1,0.03,0.03,1.47,-9.64,1.11,6062400.0,0.8
540.59,-0.09,0.03,0.03,1.47,-9.64,1.12,6062413.0,0.8
540.69,-0.1,0.03,0.02,1.45,-9.65,1.11,6062478.0,0.8
540.8,-0.13,0.02,0.01,1.43,-9.67,1.08,6062457.0,0.8
540.91,-0.18,-0.01,-0.0,1.41,-9.68,1.05,6062412.0,0.8
541.01,-0.19,-0.03,-0.02,1.4,-9.67,1.03,6062358.0,0.8
541.12,-0.18,-0.04,-0.04,1.4,-9.66,1.04,6062243.0,0.8
541.23,-0.17,-0.04,-0.03,1.41,-9.65,1.06,6062149.0,0.8
541.34,-0.16,-0.02,-0.02,1.42,-9.65,1.07,6062115.0,0.8
541.44,-0.14,0.01,-0.02,1.43,-9.64,1.07,6062162.0,0.8
541.55,-0.12,0.03,-0.03,1.43,-9.64,1.07,6062161.0,0.8
541.66,-0.12,0.01,-0.02,1.43,-9.65,1.07,6062207.0,0.8
541.76,-0.12,-0.03,-0.02,1.41,-9.66,1.06,6062223.0,0.8
541.87,-0.1,-0.06,-0.04,1.41,-9.65,1.06,6062274.0,0.8
541.98,-0.08,-0.07,-0.05,1.42,-9.64,1.06,6062243.0,0.8
542.09,-0.08,-0.06,-0.03,1.43,-9.66,1.06,6062356.0,0.8
542.19,-0.09,-0.04,-0.01,1.44,-9.67,1.07,6062334.0,0.8
542.3,-0.09,-0.01,0.01,1.45,-9.67,1.08,6062329.0,0.8
542.41,-0.09,0.02,0.01,1.44,-9.66,1.09,6062316.0,0.8
542.52,-0.1,0.05,0.01,1.43,-9.66,1.1,6062353.0,0.8
542.62,-0.13,0.06,0.02,1.43,-9.66,1.11,6062367.0,0.8
542.73,-0.14,0.06,0.02,1.43,-9.65,1.1,6062421.0,0.8
542.83,-0.14,0.07,-0.0,1.44,-9.65,1.09,6062453.0,0.8
542.94,-0.13,0.07,-0.03,1.44,-9.65,1.08,6062427.0,0.8
543.05,-0.14,0.05,-0.04,1.44,-9.65,1.08,6062395.0,0.8
543.15,-0.15,0.01,-0.05,1.44,-9.65,1.07,6062267.0,0.8
543.26,-0.15,-0.01,-0.08,1.44,-9.66,1.09,6062194.0,0.8
543.37,-0.15,-0.01,-0.1,1.45,-9.66,1.1,6062140.0,0.8
543.48,-0.14,0.01,-0.1,1.46,-9.65,1.11,6061996.0,0.8
543.58,-0.14,0.03,-0.07,1.46,-9.65,1.1,6061931.0,0.8
543.69,-0.16,0.04,-0.04,1.45,-9.66,1.1,6061839.0,0.8
543.8,-0.17,0.03,-0.04,1.43,-9.67,1.1,6061723.0,0.8
543.9,-0.16,0.02,-0.04,1.41,-9.67,1.09,6061650.0,0.8
544.01,-0.13,0.02,-0.04,1.41,-9.68,1.09,6061568.0,0.8
544.12,-0.09,0.0,-0.02,1.41,-9.67,1.08,6061420.0,0.8
544.22,-0.08,-0.01,0.01,1.42,-9.66,1.08,6061380.0,0.8
544.33,-0.08,-0.0,0.02,1.42,-9.64,1.08,6061368.0,0.8
544.44,-0.11,0.01,0.0,1.43,-9.62,1.08,6061415.0,0.8
544.55,-0.13,0.01,-0.02,1.44,-9.62,1.09,6061490.0,0.8
544.65,-0.15,-0.01,-0.04,1.44,-9.62,1.09,6061590.0,0.8
544.77,-0.16,-0.03,-0.06,1.44,-9.62,1.08,6061857.0,0.8
544.87,-0.16,-0.05,-0.05,1.44,-9.63,1.09,6061999.0,0.8
544.98,-0.14,-0.06,-0.06,1.45,-9.65,1.09,6062060.0,0.8
545.09,-0.11,-0.07,-0.07,1.45,-9.66,1.09,6062098.0,0.8
545.19,-0.1,-0.06,-0.08,1.45,-9.65,1.08,6062065.0,0.8
545.3,-0.1,-0.03,-0.07,1.46,-9.64,1.07,6061983.0,0.8
545.41,-0.11,0.0,-0.05,1.47,-9.63,1.06,6061894.0,0.8
545.51,-0.13,0.01,-0.04,1.47,-9.63,1.07,6061903.0,0.8
545.62,-0.15,-0.0,-0.03,1.47,-9.64,1.09,6061940.0,0.8
545.72,-0.17,-0.0,-0.01,1.47,-9.65,1.09,6061999.0,0.8
545.83,-0.16,-0.01,0.01,1.47,-9.65,1.09,6062096.0,0.8
545.94,-0.16,-0.01,0.01,1.46,-9.65,1.09,6062236.0,0.8
546.05,-0.15,-0.02,-0.0,1.46,-9.64,1.09,6062314.0,0.8
546.15,-0.17,-0.02,-0.01,1.45,-9.65,1.09,6062452.0,0.8
546.26,-0.2,0.0,-0.02,1.44,-9.66,1.09,6062551.0,0.8
546.37,-0.2,0.03,-0.02,1.44,-9.68,1.09,6062583.0,0.8
546.47,-0.17,0.03,-0.01,1.43,-9.69,1.1,6062581.0,0.8
546.58,-0.14,0.03,0.02,1.42,-9.68,1.1,6062600.0,0.8
546.69,-0.12,0.01,0.04,1.42,-9.67,1.09,6062594.0,0.8
546.8,-0.13,-0.02,0.05,1.43,-9.66,1.09,6062617.0,0.8
546.9,-0.15,-0.02,0.03,1.44,-9.65,1.07,6062583.0,0.8
547.01,-0.17,0.0,0.02,1.46,-9.65,1.06,6062532.0,0.8
547.12,-0.18,0.04,0.01,1.47,-9.64,1.05,6062481.0,0.8
547.22,-0.15,0.06,-0.01,1.47,-9.64,1.06,6062449.0,0.8
547.33,-0.11,0.06,-0.03,1.47,-9.65,1.07,6062414.0,0.8
547.44,-0.09,0.06,-0.04,1.46,-9.66,1.08,6062393.0,0.8
547.55,-0.1,0.05,-0.04,1.45,-9.66,1.08,6062322.0,0.8
547.65,-0.11,0.04,-0.03,1.44,-9.64,1.08,6062345.0,0.8
547.76,-0.13,0.0,-0.01,1.44,-9.62,1.09,6062330.0,0.8
547.86,-0.14,-0.03,-0.01,1.43,-9.6,1.1,6062294.0,0.8
547.97,-0.14,-0.03,-0.01,1.42,-9.61,1.1,6062231.0,0.8
548.08,-0.14,-0.02,0.0,1.43,-9.62,1.09,6062160.0,0.8
548.19,-0.14,-0.02,0.02,1.44,-9.64,1.08,6062055.0,0.8
548.29,-0.16,-0.03,0.01,1.45,-9.65,1.07,6062071.0,0.8
548.4,-0.17,-0.05,-0.0,1.46,-9.66,1.06,6062033.0,0.8
548.51,-0.17,-0.07,-0.01,1.46,-9.65,1.06,6061989.0,0.8
548.61,-0.15,-0.07,-0.01,1.45,-9.65,1.08,6062052.0,0.8
548.72,-0.13,-0.05,-0.03,1.45,-9.66,1.1,6062087.0,0.8
548.83,-0.13,-0.02,-0.06,1.43,-9.66,1.11,6062165.0,0.8
548.94,-0.12,0.02,-0.07,1.42,-9.66,1.09,6062099.0,0.8
549.05,-0.12,0.05,-0.05,1.4,-9.66,1.06,6061964.0,0.8
549.16,-0.14,0.06,-0.02,1.4,-9.66,1.04,6061863.0,0.8
549.26,-0.15,0.06,-0.01,1.4,-9.66,1.04,6061865.0,0.8
549.37,-0.15,0.05,-0.01,1.41,-9.66,1.05,6061844.0,0.8
549.48,-0.14,0.04,-0.01,1.42,-9.66,1.08,6061832.0,0.8
549.59,-0.11,0.02,-0.02,1.43,-9.65,1.11,6061821.0,0.8
549.69,-0.11,-0.0,-0.03,1.44,-9.64,1.13,6061879.0,0.8
549.8,-0.12,-0.0,-0.02,1.45,-9.64,1.15,6061895.0,0.8
549.91,-0.14,0.02,-0.02,1.45,-9.65,1.14,6061886.0,0.8
550.02,-0.16,0.03,-0.02,1.45,-9.66,1.12,6061897.0,0.8
550.13,-0.17,0.03,-0.03,1.44,-9.66,1.08,6061873.0,0.8
550.23,-0.16,0.03,-0.05,1.44,-9.66,1.07,6061810.0,0.8
550.34,-0.15,0.02,-0.08,1.45,-9.66,1.07,6061760.0,0.8
550.45,-0.14,0.01,-0.08,1.45,-9.66,1.07,6061743.0,0.8
550.56,-0.12,-0.01,-0.06,1.45,-9.66,1.07,6061755.0,0.8
550.67,-0.13,-0.03,-0.05,1.45,-9.65,1.07,6061813.0,0.8
550.77,-0.15,-0.01,-0.02,1.44,-9.66,1.07,6061823.0,0.8
550.88,-0.16,0.01,0.01,1.43,-9.66,1.07,6061843.0,0.8
550.99,-0.17,0.01,0.03,1.42,-9.66,1.07,6061846.0,0.8
551.1,-0.17,0.01,0.03,1.42,-9.66,1.07,6061842.0,0.8
551.21,-0.17,0.01,0.03,1.42,-9.66,1.09,6061890.0,0.8
551.32,-0.17,0.0,0.02,1.42,-9.66,1.1,6061897.0,0.8
551.42,-0.16,-0.01,-0.01,1.43,-9.66,1.09,6061871.0,0.8
551.53,-0.15,-0.01,-0.04,1.43,-9.66,1.06,6061791.0,0.8
551.64,-0.14,-0.02,-0.05,1.43,-9.65,1.03,6061770.0,0.8
551.75,-0.14,-0.04,-0.06,1.43,-9.66,1.02,6061784.0,0.8
551.85,-0.15,-0.05,-0.07,1.43,-9.66,1.02,6061731.0,0.8
551.96,-0.13,-0.06,-0.07,1.44,-9.66,1.04,6061635.0,0.8
552.07,-0.1,-0.04,-0.07,1.44,-9.66,1.07,6061587.0,0.8
552.18,-0.08,-0.02,-0.05,1.43,-9.65,1.09,6061616.0,0.8
552.28,-0.08,-0.02,-0.01,1.44,-9.65,1.1,6061604.0,0.8
552.39,-0.08,-0.02,0.02,1.44,-9.64,1.09,6061601.0,0.8
552.5,-0.09,-0.02,0.04,1.43,-9.63,1.09,6061624.0,0.8
552.61,-0.08,-0.03,0.06,1.44,-9.63,1.1,6061694.0,0.8
552.71,-0.09,-0.03,0.07,1.45,-9.63,1.09,6061789.0,0.8
552.83,-0.12,-0.02,0.06,1.45,-9.63,1.07,6061824.0,0.8
552.93,-0.14,-0.0,0.04,1.44,-9.63,1.07,6061830.0,0.8
553.04,-0.15,0.02,0.02,1.44,-9.64,1.08,6061845.0,0.8
553.15,-0.15,0.03,0.01,1.44,-9.64,1.08,6061866.0,0.8
553.26,-0.15,0.02,-0.01,1.44,-9.64,1.07,6061896.0,0.8
553.36,-0.14,-0.01,-0.03,1.42,-9.64,1.06,6061796.0,0.8
553.47,-0.14,-0.05,-0.05,1.42,-9.63,1.07,6061753.0,0.8
553.58,-0.15,-0.08,-0.06,1.42,-9.64,1.08,6061675.0,0.8
553.69,-0.16,-0.09,-0.05,1.42,-9.65,1.08,6061607.0,0.8
553.8,-0.15,-0.07,-0.04,1.43,-9.66,1.08,6061497.0,0.8
553.9,-0.16,-0.03,-0.03,1.44,-9.65,1.09,6061366.0,0.8
554.01,-0.18,0.01,-0.01,1.45,-9.65,1.1,6061138.0,0.8
554.12,-0.18,0.01,0.0,1.46,-9.65,1.1,6061051.0,0.8
554.22,-0.17,-0.02,0.0,1.45,-9.66,1.09,6060934.0,0.8
554.33,-0.16,-0.03,0.0,1.44,-9.68,1.09,6060857.0,0.8
554.44,-0.16,-0.03,-0.02,1.43,-9.69,1.09,6060769.0,0.8
554.55,-0.17,-0.04,-0.04,1.42,-9.68,1.07,6060692.0,0.8
554.66,-0.18,-0.04,-0.05,1.42,-9.67,1.06,6060657.0,0.8
554.77,-0.18,-0.03,-0.05,1.42,-9.65,1.06,6060609.0,0.8
554.87,-0.18,-0.03,-0.04,1.42,-9.62,1.08,6060555.0,0.8
554.98,-0.16,-0.01,-0.05,1.41,-9.61,1.09,6060512.0,0.8
555.09,-0.13,0.0,-0.06,1.42,-9.62,1.1,6060522.0,0.8
555.2,-0.13,-0.01,-0.06,1.43,-9.62,1.1,6060553.0,0.8
555.3,-0.14,-0.03,-0.05,1.44,-9.62,1.09,6060701.0,0.8
555.41,-0.15,-0.03,-0.02,1.43,-9.62,1.08,6060717.0,0.8
555.52,-0.16,-0.02,0.0,1.42,-9.64,1.08,6060772.0,0.8
555.62,-0.14,-0.02,-0.01,1.42,-9.64,1.09,6060848.0,0.8
555.73,-0.11,-0.02,-0.01,1.43,-9.65,1.09,6060910.0,0.8
555.84,-0.1,-0.04,0.01,1.43,-9.65,1.09,6060915.0,0.8
555.95,-0.12,-0.02,0.03,1.44,-9.65,1.08,6060928.0,0.8
556.06,-0.13,0.0,0.05,1.44,-9.64,1.07,6060922.0,0.8
556.16,-0.14,0.01,0.06,1.45,-9.62,1.07,6060919.0,0.8
556.27,-0.14,0.02,0.03,1.46,-9.61,1.07,6060889.0,0.8
556.38,-0.14,0.02,0.01,1.47,-9.61,1.06,6060871.0,0.8
556.49,-0.16,0.02,-0.01,1.47,-9.63,1.06,6060828.0,0.8
556.59,-0.17,0.02,-0.01,1.46,-9.64,1.09,6060836.0,0.8
556.7,-0.17,0.01,-0.0,1.46,-9.65,1.12,6060807.0,0.8
556.81,-0.18,-0.02,0.01,1.45,-9.65,1.13,6060779.0,0.8
556.92,-0.18,-0.04,-0.01,1.44,-9.64,1.12,6060799.0,0.8
557.02,-0.17,-0.04,-0.04,1.43,-9.64,1.12,6060833.0,0.8
557.13,-0.15,-0.01,-0.05,1.44,-9.63,1.13,6060884.0,0.8
557.24,-0.12,0.02,-0.08,1.45,-9.64,1.11,6060917.0,0.8
557.35,-0.11,0.04,-0.11,1.45,-9.65,1.09,6060911.0,0.8
557.45,-0.11,0.05,-0.11,1.44,-9.66,1.06,6060901.0,0.8
557.56,-0.12,0.04,-0.1,1.44,-9.65,1.05,6060885.0,0.8
557.67,-0.15,0.03,-0.08,1.44,-9.65,1.04,6060904.0,0.8
557.78,-0.17,0.0,-0.05,1.44,-9.65,1.05,6060939.0,0.8
557.89,-0.17,-0.04,-0.02,1.43,-9.64,1.07,6060853.0,0.8
557.99,-0.17,-0.07,-0.01,1.43,-9.64,1.09,6060861.0,0.8
558.1,-0.16,-0.08,-0.01,1.44,-9.65,1.11,6060825.0,0.8
558.21,-0.16,-0.08,-0.02,1.45,-9.66,1.11,6060788.0,0.8
558.32,-0.16,-0.08,-0.02,1.45,-9.66,1.11,6060775.0,0.8
558.42,-0.16,-0.08,-0.01,1.44,-9.66,1.1,6060764.0,0.8
558.53,-0.18,-0.07,-0.01,1.44,-9.66,1.1,6060793.0,0.8
558.64,-0.19,-0.06,-0.02,1.44,-9.66,1.09,6060774.0,0.8
558.74,-0.17,-0.06,-0.03,1.44,-9.64,1.08,6060743.0,0.8
558.85,-0.15,-0.06,-0.03,1.45,-9.64,1.08,6060739.0,0.8
558.96,-0.13,-0.06,-0.0,1.46,-9.64,1.08,6060686.0,0.8
559.07,-0.12,-0.03,0.02,1.47,-9.64,1.07,6060644.0,0.8
559.18,-0.12,-0.01,0.03,1.47,-9.65,1.06,6060630.0,0.8
559.29,-0.13,0.0,0.03,1.47,-9.65,1.06,6060581.0,0.8
559.39,-0.13,0.01,0.04,1.46,-9.66,1.05,6060462.0,0.8
559.5,-0.12,0.02,0.06,1.45,-9.66,1.05,6060347.0,0.8
559.61,-0.11,0.03,0.06,1.44,-9.66,1.06,6060392.0,0.8
559.72,-0.11,0.06,0.03,1.43,-9.66,1.08,6060399.0,0.8
559.83,-0.1,0.06,-0.0,1.44,-9.66,1.1,6060408.0,0.8
559.94,-0.1,0.04,-0.02,1.45,-9.66,1.11,6060389.0,0.8
560.04,-0.1,0.01,-0.02,1.46,-9.65,1.11,6060331.0,0.8
560.15,-0.11,-0.01,-0.02,1.46,-9.64,1.1,6060322.0,0.8
560.26,-0.1,-0.01,0.0,1.46,-9.63,1.08,6060301.0,0.8
560.37,-0.08,0.01,0.02,1.46,-9.63,1.08,6060276.0,0.8
560.47,-0.07,0.04,0.02,1.43,-9.64,1.08,6060307.0,0.8
560.58,-0.07,0.05,0.02,1.42,-9.63,1.08,6060293.0,0.8
560.69,-0.08,0.05,0.02,1.42,-9.63,1.07,6060264.0,0.8
560.8,-0.1,0.03,0.01,1.43,-9.62,1.07,6060233.0,0.8
560.91,-0.12,-0.01,-0.0,1.43,-9.61,1.09,6060141.0,0.8
561.02,-0.14,-0.04,-0.0,1.43,-9.62,1.1,6059866.0,0.8
561.13,-0.17,-0.05,-0.0,1.45,-9.62,1.09,6059724.0,0.8
561.24,-0.18,-0.04,-0.02,1.45,-9.64,1.07,6059444.0,0.8
561.34,-0.18,-0.02,-0.04,1.46,-9.64,1.07,6059175.0,0.8
561.46,-0.18,0.0,-0.03,1.46,-9.65,1.08,6058956.0,0.8
561.56,-0.18,-0.0,-0.01,1.45,-9.65,1.1,6058800.0,0.8
561.67,-0.17,-0.03,0.02,1.44,-9.65,1.11,6058828.0,0.8
561.78,-0.14,-0.07,0.03,1.43,-9.65,1.11,6058906.0,0.8
561.89,-0.12,-0.09,0.04,1.42,-9.65,1.1,6059007.0,0.8
561.99,-0.12,-0.09,0.04,1.42,-9.65,1.08,6059094.0,0.8
562.1,-0.14,-0.09,0.02,1.42,-9.66,1.07,6059172.0,0.8
562.21,-0.16,-0.07,-0.0,1.42,-9.67,1.09,6059252.0,0.8
562.32,-0.18,-0.05,-0.02,1.42,-9.67,1.11,6059240.0,0.8
562.42,-0.19,-0.05,-0.03,1.42,-9.67,1.13,6059178.0,0.8
562.53,-0.18,-0.06,-0.01,1.43,-9.68,1.13,6059227.0,0.8
562.64,-0.17,-0.05,0.04,1.44,-9.67,1.12,6059234.0,0.8
562.75,-0.15,-0.03,0.07,1.45,-9.66,1.11,6059240.0,0.8
562.86,-0.15,0.01,0.06,1.44,-9.65,1.1,6059295.0,0.8
562.97,-0.16,0.04,0.02,1.43,-9.64,1.09,6059511.0,0.8
563.07,-0.15,0.04,-0.01,1.41,-9.64,1.07,6059562.0,0.8
563.18,-0.12,0.02,-0.01,1.4,-9.65,1.05,6059632.0,0.8
563.29,-0.09,0.0,-0.01,1.39,-9.65,1.05,6059701.0,0.8
563.4,-0.07,-0.02,0.02,1.4,-9.65,1.06,6059725.0,0.8
563.51,-0.08,-0.02,0.05,1.42,-9.64,1.07,6059727.0,0.8
563.62,-0.11,-0.02,0.07,1.44,-9.64,1.08,6059696.0,0.8
563.72,-0.14,-0.01,0.07,1.45,-9.63,1.08,6059669.0,0.8
563.83,-0.18,0.03,0.04,1.44,-9.64,1.08,6059682.0,0.8
563.94,-0.19,0.1,0.01,1.43,-9.64,1.1,6059634.0,0.8
564.05,-0.16,0.15,-0.01,1.43,-9.65,1.1,6059521.0,0.8
564.16,-0.14,0.15,-0.03,1.44,-9.66,1.09,6059475.0,0.8
564.27,-0.13,0.11,-0.04,1.45,-9.67,1.08,6059334.0,0.8
564.37,-0.13,0.04,-0.04,1.46,-9.67,1.08,6059305.0,0.8
564.48,-0.12,-0.02,-0.04,1.45,-9.66,1.08,6059284.0,0.8
564.59,-0.1,-0.04,-0.04,1.45,-9.65,1.09,6059195.0,0.8
564.7,-0.1,-0.02,-0.02,1.45,-9.64,1.1,6059127.0,0.8
564.81,-0.13,0.01,0.01,1.45,-9.64,1.11,6059148.0,0.8
564.92,-0.14,0.03,0.01,1.44,-9.63,1.12,6059158.0,0.8
565.02,-0.16,0.01,0.0,1.43,-9.64,1.12,6059151.0,0.8
565.13,-0.17,-0.02,-0.02,1.42,-9.64,1.1,6059180.0,0.8
565.24,-0.18,-0.04,-0.02,1.42,-9.64,1.08,6059226.0,0.8
565.35,-0.17,-0.06,0.0,1.43,-9.65,1.07,6059263.0,0.8
565.45,-0.16,-0.08,0.03,1.43,-9.65,1.07,6059139.0,0.8
565.56,-0.16,-0.09,0.03,1.44,-9.64,1.09,6059186.0,0.8
565.67,-0.16,-0.08,0.01,1.45,-9.65,1.11,6059166.0,0.8
565.78,-0.17,-0.06,-0.01,1.46,-9.66,1.12,6059137.0,0.8
565.89,-0.18,-0.03,-0.02,1.46,-9.67,1.12,6059119.0,0.8
565.99,-0.17,-0.0,-0.01,1.47,-9.66,1.12,6059123.0,0.8
566.1,-0.17,-0.0,0.01,1.47,-9.65,1.1,6059094.0,0.8
566.21,-0.18,-0.0,0.01,1.47,-9.65,1.08,6059020.0,0.8
566.32,-0.18,0.02,-0.02,1.47,-9.65,1.06,6058961.0,0.8
566.42,-0.17,0.01,-0.05,1.47,-9.65,1.05,6058919.0,0.8
566.53,-0.16,-0.03,-0.07,1.47,-9.64,1.05,6058921.0,0.8
566.64,-0.14,-0.04,-0.09,1.46,-9.65,1.07,6058902.0,0.8
566.75,-0.15,-0.02,-0.08,1.45,-9.65,1.09,6058779.0,0.8
566.86,-0.16,-0.01,-0.06,1.44,-9.65,1.09,6058703.0,0.8
566.96,-0.14,-0.04,-0.06,1.44,-9.65,1.09,6058661.0,0.8
567.07,-0.11,-0.07,-0.04,1.45,-9.65,1.09,6058585.0,0.8
567.18,-0.1,-0.08,-0.02,1.45,-9.65,1.08,6058559.0,0.8
567.29,-0.1,-0.07,-0.03,1.45,-9.65,1.08,6058526.0,0.8
567.4,-0.1,-0.06,-0.05,1.44,-9.65,1.08,6058439.0,0.8
567.5,-0.12,-0.04,-0.04,1.44,-9.65,1.08,6058440.0,0.8
567.61,-0.15,-0.02,-0.01,1.43,-9.66,1.08,6058447.0,0.8
567.72,-0.17,-0.02,0.02,1.43,-9.66,1.08,6058381.0,0.8
567.82,-0.18,-0.01,0.01,1.43,-9.66,1.08,6058383.0,0.8
567.93,-0.18,0.01,0.0,1.43,-9.64,1.08,6058384.0,0.8
568.04,-0.19,0.03,-0.01,1.43,-9.63,1.08,6058393.0,0.8
568.15,-0.17,0.03,-0.01,1.44,-9.62,1.08,6058362.0,0.8
568.25,-0.14,0.03,-0.02,1.44,-9.63,1.09,6058352.0,0.8
568.36,-0.11,0.05,-0.04,1.45,-9.63,1.09,6058256.0,0.8
568.47,-0.1,0.08,-0.07,1.45,-9.63,1.09,6058214.0,0.8
568.58,-0.1,0.09,-0.08,1.46,-9.64,1.09,6058252.0,0.8
568.68,-0.11,0.08,-0.04,1.47,-9.65,1.1,6058239.0,0.8
568.79,-0.13,0.03,0.0,1.46,-9.65,1.11,6058194.0,0.8
568.9,-0.13,-0.02,0.03,1.45,-9.66,1.1,6058151.0,0.8
569.0,-0.1,-0.04,0.04,1.44,-9.66,1.09,6058109.0,0.8
569.11,-0.07,-0.04,0.06,1.43,-9.66,1.08,6058043.0,0.8
569.22,-0.05,-0.04,0.06,1.44,-9.65,1.07,6058002.0,0.8
569.33,-0.07,-0.02,0.06,1.44,-9.66,1.07,6057936.0,0.8
569.43,-0.1,0.01,0.04,1.44,-9.65,1.08,6057667.0,0.8
569.54,-0.11,0.04,-0.01,1.44,-9.65,1.08,6057517.0,0.8
569.65,-0.11,0.04,-0.05,1.45,-9.65,1.09,6057394.0,0.8
569.76,-0.11,0.0,-0.04,1.46,-9.65,1.09,6057294.0,0.8
569.86,-0.12,-0.03,-0.02,1.46,-9.65,1.1,6057233.0,0.8
569.98,-0.15,-0.05,-0.01,1.46,-9.65,1.1,6057086.0,0.8
570.09,-0.18,-0.05,-0.01,1.44,-9.64,1.11,6057055.0,0.8
570.2,-0.18,-0.04,-0.02,1.43,-9.64,1.11,6057018.0,0.8
570.3,-0.14,-0.03,-0.01,1.43,-9.64,1.11,6056985.0,0.8
570.41,-0.09,-0.02,-0.01,1.45,-9.64,1.11,6056992.0,0.8
570.52,-0.06,-0.0,0.01,1.47,-9.64,1.09,6057030.0,0.8
570.63,-0.07,0.01,0.01,1.48,-9.64,1.06,6057014.0,0.8
570.73,-0.1,0.02,-0.02,1.47,-9.64,1.05,6057042.0,0.8
570.84,-0.12,0.03,-0.04,1.45,-9.63,1.06,6057048.0,0.8
570.95,-0.12,0.03,-0.04,1.44,-9.63,1.06,6057068.0,0.8
571.05,-0.13,0.01,-0.06,1.43,-9.64,1.06,6057052.0,0.8
571.16,-0.15,-0.01,-0.08,1.42,-9.65,1.07,6057055.0,0.8
571.27,-0.17,-0.0,-0.07,1.41,-9.65,1.08,6057089.0,0.8
571.38,-0.16,-0.01,-0.05,1.42,-9.65,1.08,6057051.0,0.8
571.48,-0.14,-0.02,-0.05,1.42,-9.64,1.08,6057067.0,0.8
571.59,-0.12,-0.04,-0.05,1.41,-9.64,1.09,6057084.0,0.8
571.7,-0.1,-0.06,-0.04,1.4,-9.63,1.08,6057089.0,0.8
571.81,-0.09,-0.04,-0.03,1.41,-9.63,1.07,6057104.0,0.8
571.91,-0.07,0.02,-0.02,1.43,-9.62,1.07,6057075.0,0.8
572.03,-0.06,0.07,0.03,1.44,-9.63,1.08,6057140.0,0.8
572.13,-0.08,0.08,0.06,1.44,-9.64,1.08,6057151.0,0.8
572.24,-0.1,0.06,0.07,1.42,-9.64,1.07,6057124.0,0.8
572.35,-0.12,0.04,0.06,1.42,-9.64,1.05,6057124.0,0.8
572.46,-0.13,0.03,0.03,1.44,-9.64,1.03,6057129.0,0.8
572.56,-0.13,0.02,0.0,1.46,-9.64,1.03,6057085.0,0.8
572.67,-0.14,-0.01,-0.02,1.47,-9.64,1.03,6057085.0,0.8
572.78,-0.14,-0.03,-0.06,1.46,-9.64,1.05,6057026.0,0.8
572.89,-0.13,-0.03,-0.07,1.46,-9.64,1.06,6056921.0,0.8
573.0,-0.11,-0.04,-0.04,1.47,-9.64,1.05,6056890.0,0.8
573.11,-0.1,-0.05,0.0,1.47,-9.65,1.04,6056871.0,0.8
573.21,-0.12,-0.04,0.02,1.47,-9.66,1.04,6056753.0,0.8
573.32,-0.14,-0.04,-0.01,1.47,-9.67,1.05,6056656.0,0.8
573.43,-0.14,-0.03,-0.05,1.47,-9.67,1.07,6056617.0,0.8
573.54,-0.15,-0.02,-0.07,1.46,-9.65,1.08,6056571.0,0.8
573.64,-0.17,0.0,-0.07,1.45,-9.64,1.09,6056497.0,0.8
573.75,-0.18,0.0,-0.06,1.44,-9.63,1.09,6056520.0,0.8
573.86,-0.18,0.0,-0.06,1.43,-9.62,1.1,6056437.0,0.8
573.97,-0.16,0.03,-0.06,1.44,-9.62,1.09,6056455.0,0.8
574.07,-0.16,0.06,-0.06,1.44,-9.62,1.08,6056465.0,0.8
574.18,-0.16,0.07,-0.06,1.44,-9.63,1.07,6056430.0,0.8
574.29,-0.18,0.05,-0.06,1.45,-9.64,1.07,6056465.0,0.8
574.4,-0.19,0.03,-0.03,1.45,-9.63,1.08,6056436.0,0.8
574.51,-0.19,0.0,-0.01,1.44,-9.62,1.09,6056413.0,0.8
574.61,-0.19,-0.01,0.02,1.43,-9.62,1.09,6056416.0,0.8
574.72,-0.2,-0.02,0.03,1.44,-9.63,1.09,6056356.0,0.8
574.83,-0.21,-0.02,0.03,1.45,-9.64,1.09,6056286.0,0.8
574.93,-0.2,-0.03,0.03,1.46,-9.66,1.09,6056283.0,0.8
575.04,-0.17,-0.03,0.04,1.47,-9.67,1.08,6056268.0,0.8
575.15,-0.15,-0.03,0.06,1.47,-9.67,1.08,6056192.0,0.8
575.26,-0.15,-0.03,0.08,1.46,-9.67,1.08,6056168.0,0.8
575.36,-0.17,-0.05,0.06,1.45,-9.67,1.08,6056139.0,0.8
575.47,-0.19,-0.08,0.04,1.44,-9.68,1.08,6056101.0,0.8
575.58,-0.2,-0.1,0.04,1.44,-9.69,1.08,6056031.0,0.8
575.69,-0.21,-0.1,0.04,1.44,-9.68,1.07,6055969.0,0.8
575.79,-0.2,-0.06,0.03,1.45,-9.66,1.07,6055907.0,0.8
575.9,-0.19,-0.01,0.01,1.46,-9.66,1.06,6055865.0,0.8
576.01,-0.18,0.03,-0.01,1.46,-9.66,1.06,6055834.0,0.8
576.12,-0.15,0.06,-0.02,1.46,-9.66,1.06,6055727.0,0.8
576.22,-0.11,0.06,-0.03,1.46,-9.67,1.07,6055670.0,0.8
576.33,-0.09,0.05,-0.03,1.45,-9.67,1.08,6055673.0,0.8
576.44,-0.1,0.03,-0.03,1.45,-9.66,1.09,6055668.0,0.8
576.55,-0.12,0.02,-0.04,1.45,-9.66,1.09,6055690.0,0.8
576.66,-0.13,0.01,-0.04,1.44,-9.66,1.08,6055701.0,0.8
576.76,-0.12,0.03,-0.02,1.44,-9.64,1.06,6055640.0,0.8
576.87,-0.11,0.06,-0.02,1.43,-9.63,1.06,6055629.0,0.8
576.98,-0.12,0.08,-0.05,1.42,-9.62,1.07,6055712.0,0.8
577.09,-0.14,0.09,-0.07,1.41,-9.63,1.09,6055734.0,0.8
577.2,-0.15,0.1,-0.07,1.42,-9.64,1.09,6055768.0,0.8
577.3,-0.15,0.08,-0.03,1.43,-9.64,1.09,6055772.0,0.8
577.41,-0.14,0.04,0.01,1.43,-9.64,1.08,6055722.0,0.8
577.52,-0.13,0.02,0.02,1.42,-9.64,1.08,6055658.0,0.8
577.63,-0.14,0.01,-0.01,1.42,-9.65,1.07,6055660.0,0.8
577.73,-0.14,0.01,-0.04,1.42,-9.65,1.07,6055684.0,0.8
577.84,-0.14,0.02,-0.06,1.44,-9.67,1.07,6055600.0,0.8
577.95,-0.14,0.02,-0.08,1.44,-9.67,1.06,6055576.0,0.8
578.06,-0.16,0.01,-0.1,1.46,-9.66,1.05,6055569.0,0.8
578.17,-0.16,-0.01,-0.1,1.47,-9.65,1.05,6055479.0,0.8
578.28,-0.15,-0.02,-0.08,1.47,-9.64,1.06,6055460.0,0.8
578.39,-0.12,-0.02,-0.05,1.47,-9.63,1.07,6055368.0,0.8
578.49,-0.08,-0.02,-0.02,1.46,-9.64,1.09,6055331.0,0.8
578.6,-0.05,-0.03,0.0,1.45,-9.64,1.09,6055278.0,0.8
578.71,-0.07,-0.03,-0.0,1.45,-9.64,1.1,6055195.0,0.8
578.82,-0.11,-0.02,-0.03,1.44,-9.63,1.09,6055194.0,0.8
578.93,-0.14,0.02,-0.05,1.45,-9.63,1.09,6055152.0,0.8
579.03,-0.14,0.04,-0.05,1.46,-9.63,1.1,6055003.0,0.8
579.14,-0.14,0.03,-0.03,1.46,-9.63,1.1,6054915.0,0.8
579.25,-0.12,0.03,-0.01,1.46,-9.64,1.1,6054854.0,0.8
579.36,-0.12,0.02,0.0,1.45,-9.65,1.09,6054793.0,0.8
579.47,-0.12,0.0,0.01,1.45,-9.66,1.08,6054845.0,0.8
579.58,-0.12,-0.02,0.0,1.45,-9.66,1.07,6054872.0,0.8
579.68,-0.1,-0.03,-0.01,1.45,-9.65,1.07,6054701.0,0.8
579.79,-0.1,-0.03,-0.02,1.46,-9.65,1.07,6054627.0,0.8
579.9,-0.12,-0.02,-0.03,1.47,-9.64,1.06,6054579.0,0.8
580.01,-0.14,-0.02,-0.01,1.47,-9.63,1.06,6054515.0,0.8
580.11,-0.15,-0.01,0.01,1.48,-9.63,1.06,6054478.0,0.8
580.22,-0.13,-0.01,0.02,1.47,-9.62,1.07,6054527.0,0.8
580.33,-0.11,-0.02,0.0,1.47,-9.62,1.07,6054617.0,0.8
580.44,-0.1,-0.02,-0.02,1.47,-9.63,1.06,6054659.0,0.8
580.54,-0.11,-0.02,-0.02,1.47,-9.63,1.05,6054718.0,0.8
580.65,-0.13,0.0,0.01,1.46,-9.63,1.05,6054712.0,0.8
580.76,-0.15,0.01,0.03,1.45,-9.64,1.07,6054741.0,0.8
580.87,-0.13,0.01,0.04,1.43,-9.64,1.09,6054772.0,0.8
580.97,-0.1,0.02,0.02,1.42,-9.63,1.09,6054970.0,0.8
581.08,-0.08,0.03,0.02,1.42,-9.63,1.08,6055085.0,0.8
581.19,-0.08,0.04,-0.0,1.43,-9.64,1.08,6055183.0,0.8
581.3,-0.09,0.03,-0.04,1.45,-9.64,1.08,6055231.0,0.8
581.41,-0.12,0.02,-0.06,1.45,-9.65,1.08,6055273.0,0.8
581.52,-0.15,-0.01,-0.07,1.45,-9.66,1.08,6055268.0,0.8
581.62,-0.17,-0.04,-0.05,1.45,-9.65,1.08,6055364.0,0.8
581.73,-0.18,-0.07,-0.03,1.45,-9.63,1.09,6055334.0,0.8
581.84,-0.17,-0.08,0.0,1.45,-9.63,1.1,6055236.0,0.8
581.95,-0.16,-0.08,0.01,1.45,-9.63,1.11,6055179.0,0.8
582.06,-0.17,-0.06,-0.0,1.45,-9.64,1.11,6055121.0,0.8
582.17,-0.19,-0.02,-0.02,1.45,-9.64,1.09,6055108.0,0.8
582.28,-0.19,0.01,-0.03,1.45,-9.64,1.08,6054982.0,0.8
582.39,-0.18,0.02,-0.03,1.45,-9.64,1.09,6054800.0,0.8
582.49,-0.17,0.02,-0.02,1.46,-9.65,1.1,6054640.0,0.8
582.6,-0.17,-0.01,-0.02,1.47,-9.65,1.1,6054502.0,0.8
582.71,-0.16,-0.04,-0.02,1.48,-9.65,1.09,6054384.0,0.8
582.82,-0.15,-0.06,0.01,1.48,-9.65,1.09,6054106.0,0.8
582.93,-0.15,-0.07,0.05,1.47,-9.65,1.1,6054072.0,0.8
583.03,-0.15,-0.09,0.06,1.47,-9.65,1.1,6054030.0,0.8
583.14,-0.15,-0.09,0.04,1.45,-9.65,1.11,6053992.0,0.8
583.25,-0.15,-0.05,0.02,1.45,-9.64,1.12,6053928.0,0.8
583.36,-0.15,0.0,0.0,1.45,-9.64,1.12,6053925.0,0.8
583.47,-0.13,0.03,-0.03,1.45,-9.64,1.11,6053923.0,0.8
583.58,-0.13,0.01,-0.06,1.46,-9.65,1.1,6053941.0,0.8
583.69,-0.14,0.01,-0.04,1.46,-9.64,1.1,6053671.0,0.8
583.79,-0.16,0.03,0.02,1.44,-9.63,1.1,6043574.0,0.8
583.9,-0.19,0.04,0.02,1.42,-9.6,1.09,6026009.0,0.8
584.01,-0.23,0.03,-0.03,1.4,-9.59,1.07,6042004.0,0.8
584.12,-0.26,0.0,-0.06,1.39,-9.62,1.07,6053201.0,0.8
584.23,-0.28,-0.01,-0.05,1.39,-9.65,1.08,6052292.0,0.8
584.34,-0.1,0.09,0.21,1.45,-9.73,1.1,6048779.0,0.8
584.44,0.34,0.34,0.85,1.56,-9.89,1.12,6037141.0,0.8
584.55,0.72,0.55,1.41,1.66,-9.98,1.14,6017460.0,0.8
584.66,0.76,0.58,1.35,1.66,-9.93,1.14,6008686.0,0.8
584.76,0.54,0.42,0.87,1.58,-9.82,1.13,6034325.0,0.8
584.87,0.26,0.21,0.39,1.5,-9.71,1.1,6043002.0,0.8
584.98,0.03,0.06,0.03,1.47,-9.65,1.09,6045540.0,0.8
585.08,-0.14,-0.02,-0.22,1.45,-9.62,1.08,6039492.0,0.8
585.19,-0.23,-0.06,-0.37,1.44,-9.63,1.09,5984148.0,0.8
585.3,-0.27,-0.07,-0.41,1.43,-9.64,1.08,5868888.0,0.8
585.41,-0.27,-0.08,-0.4,1.43,-9.65,1.07,5679243.0,0.8
585.52,-0.27,-0.11,-0.37,1.44,-9.66,1.07,5617101.0,0.8
585.62,-0.27,-0.15,-0.34,1.44,-9.67,1.07,5532131.0,0.8
585.73,-0.27,-0.15,-0.29,1.45,-9.66,1.07,5437021.0,0.8
585.84,-0.27,-0.14,-0.24,1.43,-9.64,1.07,5358523.0,0.8
585.95,-0.26,-0.1,-0.2,1.41,-9.63,1.07,5316494.0,0.8
586.05,-0.26,-0.07,-0.14,1.4,-9.61,1.06,5295571.0,0.8
586.16,-0.32,-0.09,-0.04,1.39,-9.57,1.05,5240298.0,0.8
586.27,-0.37,-0.11,-0.0,1.4,-9.54,1.06,5218519.0,0.8
586.38,-0.36,-0.06,-0.03,1.41,-9.54,1.07,5168624.0,0.8
586.49,-0.33,-0.01,-0.1,1.43,-9.56,1.08,5129182.0,0.8
586.59,-0.3,0.03,-0.18,1.46,-9.59,1.09,5104738.0,0.8
586.7,-0.22,0.04,-0.24,1.49,-9.63,1.11,4946840.0,0.8
586.81,-0.11,0.08,-0.27,1.54,-9.66,1.12,4883681.0,0.8
586.91,-0.07,0.14,-0.26,1.58,-9.67,1.11,4845022.0,0.8
587.02,0.54,0.11,-0.44,1.51,-10.09,1.09,4781258.0,0.8
587.13,1.8,-0.12,-0.84,1.29,-10.95,1.04,4684470.0,0.8
587.24,2.17,-0.38,-0.92,1.15,-11.2,1.01,4717024.0,0.8
587.35,1.49,-0.5,-0.67,1.18,-10.74,1.01,4762869.0,0.8
587.45,0.71,-0.45,-0.42,1.29,-10.22,1.03,4754719.0,0.8
587.56,0.13,-0.29,-0.26,1.43,-9.82,1.04,4720701.0,0.8
587.67,-0.2,-0.05,-0.15,1.57,-9.58,1.07,4694824.0,0.8
587.78,-0.31,0.16,-0.11,1.66,-9.51,1.1,4636222.0,0.8
587.88,-0.3,0.21,-0.13,1.66,-9.51,1.1,4573031.0,0.8
587.99,-0.3,0.14,-0.16,1.63,-9.54,1.09,4539989.0,0.8
588.09,-0.3,0.05,-0.18,1.59,-9.57,1.09,4457967.0,0.8
588.2,-0.27,-0.03,-0.21,1.56,-9.59,1.09,4387192.0,0.8
588.31,-0.21,-0.07,-0.21,1.55,-9.61,1.09,4317334.0,0.8
588.42,-0.19,-0.09,-0.23,1.54,-9.62,1.08,4240573.0,0.8
588.53,-0.21,-0.11,-0.28,1.54,-9.62,1.07,4156826.0,0.8
588.64,-0.24,-0.12,-0.39,1.55,-9.62,1.06,4057550.0,0.8
588.74,-0.26,-0.12,-0.53,1.56,-9.61,1.06,3707521.0,0.8
588.85,-0.24,-0.1,-0.58,1.57,-9.61,1.06,3422450.0,0.8
588.96,-0.19,-0.07,-0.5,1.56,-9.61,1.06,3196941.0,0.8
589.07,-0.16,-0.02,-0.36,1.56,-9.61,1.06,3053649.0,0.8
589.17,-0.17,0.0,-0.32,1.56,-9.62,1.06,2911114.0,0.8
589.28,-0.2,-0.01,-0.39,1.57,-9.63,1.05,2881327.0,0.8
589.39,-0.2,-0.03,-0.37,1.59,-9.62,1.05,2379151.0,0.8
589.49,-0.2,-0.03,-0.3,1.61,-9.6,1.04,2267841.0,0.8
589.6,-0.21,-0.03,-0.3,1.62,-9.61,1.03,2207894.0,0.8
589.71,-0.2,-0.02,-0.27,1.63,-9.62,1.03,2124245.0,0.8
589.82,-0.18,0.02,-0.19,1.64,-9.62,1.03,1944330.0,0.8
589.92,-0.17,0.06,-0.12,1.63,-9.63,1.04,1774758.0,0.8
590.03,-0.17,0.08,-0.05,1.63,-9.64,1.04,1524510.0,0.8
590.14,-0.18,0.07,-0.02,1.64,-9.64,1.03,1422224.0,0.8
590.24,-0.22,0.05,-0.07,1.65,-9.63,1.02,1459878.0,0.8
590.35,-0.27,0.05,-0.18,1.66,-9.62,1.0,1468583.0,0.8
590.46,-0.28,0.04,-0.29,1.67,-9.62,0.99,1419864.0,0.8
590.57,-0.26,0.0,-0.3,1.67,-9.63,0.99,1366131.0,0.8
590.67,-0.22,-0.02,-0.23,1.67,-9.64,0.99,1337046.0,0.8
590.78,-0.19,-0.03,-0.16,1.66,-9.64,1.0,1377257.0,0.8
590.89,-0.15,-0.07,-0.13,1.63,-9.65,1.01,1379360.0,0.8
591.0,-0.12,-0.1,-0.13,1.61,-9.65,1.02,1353173.0,0.8
591.11,-0.12,-0.1,-0.12,1.6,-9.64,1.02,1297014.0,0.8
591.22,-0.12,-0.04,-0.06,1.61,-9.62,1.01,1247810.0,0.8
591.32,-0.16,0.03,-0.15,1.64,-9.6,1.0,1179589.0,0.8
591.43,-0.23,0.05,-0.35,1.67,-9.59,0.99,1125750.0,0.8
591.54,-0.23,0.03,-0.38,1.7,-9.59,0.99,834407.0,0.8
591.64,-0.19,-0.0,-0.31,1.71,-9.59,0.99,743153.0,0.8
591.75,-0.15,-0.01,-0.23,1.73,-9.59,0.99,827622.0,0.8
591.86,-0.15,0.0,-0.17,1.75,-9.58,1.0,754993.0,0.8
591.97,-0.15,0.01,-0.14,1.77,-9.58,0.99,625697.0,0.8
592.07,-0.16,-0.01,-0.08,1.75,-9.58,0.98,531924.0,0.8
592.18,-0.15,-0.04,0.03,1.73,-9.59,0.98,547591.0,0.8
592.29,-0.13,-0.05,0.13,1.71,-9.6,0.99,537091.0,0.8
592.39,-0.14,-0.04,0.11,1.71,-9.6,1.0,551207.0,0.8
592.5,-0.16,-0.02,0.03,1.71,-9.6,1.01,593770.0,0.8
592.61,-0.17,-0.0,-0.01,1.7,-9.6,1.02,563682.0,0.8
592.72,-0.16,0.01,-0.05,1.7,-9.6,1.01,476378.0,0.8
592.82,-0.15,0.04,-0.12,1.7,-9.6,1.0,535816.0,0.8
592.93,-0.14,0.07,-0.11,1.69,-9.61,1.0,529905.0,0.8
593.04,-0.14,0.07,-0.05,1.69,-9.61,1.02,447566.0,0.8
593.15,-0.16,0.03,-0.01,1.69,-9.61,1.03,451323.0,0.8
593.25,-0.16,0.01,-0.01,1.69,-9.61,1.04,440549.0,0.8
593.36,-0.17,-0.01,-0.04,1.69,-9.6,1.03,426623.0,0.8
593.47,-0.17,-0.04,-0.04,1.7,-9.6,1.03,407346.0,0.8
593.58,-0.15,-0.05,-0.01,1.71,-9.61,1.03,407459.0,0.8
593.68,-0.11,-0.04,-0.01,1.72,-9.61,1.04,431514.0,0.8
593.79,-0.08,-0.03,-0.03,1.73,-9.6,1.05,449940.0,0.8
593.9,-0.08,-0.03,0.0,1.75,-9.59,1.05,436627.0,0.8
594.01,-0.1,-0.06,0.05,1.75,-9.59,1.04,415913.0,0.8
594.11,-0.14,-0.08,0.07,1.74,-9.59,1.03,492663.0,0.8
594.22,-0.17,-0.05,0.06,1.71,-9.59,1.02,489809.0,0.8
594.33,-0.19,0.0,0.03,1.7,-9.59,1.03,485952.0,0.8
594.44,-0.18,0.03,0.0,1.69,-9.59,1.02,508424.0,0.8
594.54,-0.17,0.04,-0.01,1.68,-9.6,1.0,474620.0,0.8
594.65,-0.15,0.03,-0.02,1.7,-9.61,0.99,483555.0,0.8
594.76,-0.16,0.01,-0.02,1.72,-9.61,0.99,486722.0,0.8
594.87,-0.16,-0.02,0.0,1.73,-9.61,0.98,502048.0,0.8
594.97,-0.14,-0.05,0.01,1.73,-9.61,0.98,471925.0,0.8
595.08,-0.11,-0.06,-0.01,1.71,-9.6,0.99,505967.0,0.8
595.19,-0.08,-0.05,-0.03,1.71,-9.6,1.0,484863.0,0.8
595.3,-0.07,-0.03,-0.03,1.7,-9.61,1.0,494260.0,0.8
595.41,-0.09,0.0,-0.04,1.7,-9.61,0.98,475935.0,0.8
595.52,-0.09,0.02,-0.05,1.69,-9.62,0.98,499736.0,0.8
595.62,-0.08,0.01,-0.07,1.69,-9.62,1.0,475899.0,0.8
595.73,-0.08,-0.0,-0.06,1.69,-9.63,1.03,489357.0,0.8
595.84,-0.1,0.0,-0.02,1.69,-9.63,1.03,486975.0,0.8
595.94,-0.12,-0.0,0.0,1.69,-9.64,1.03,498728.0,0.8
596.05,-0.13,-0.02,-0.01,1.69,-9.64,1.04,473931.0,0.8
596.16,-0.14,-0.04,-0.02,1.7,-9.64,1.05,487538.0,0.8
596.27,-0.15,-0.07,-0.04,1.7,-9.63,1.05,483928.0,0.8
596.37,-0.16,-0.08,-0.05,1.69,-9.62,1.03,473991.0,0.8
596.48,-0.15,-0.08,-0.04,1.68,-9.61,1.0,492845.0,0.8
596.59,-0.15,-0.06,-0.01,1.68,-9.6,0.99,488291.0,0.8
596.7,-0.15,-0.05,0.03,1.68,-9.6,0.99,479787.0,0.8
596.8,-0.15,-0.05,0.04,1.68,-9.6,1.0,475080.0,0.8
596.91,-0.15,-0.07,0.04,1.69,-9.61,1.02,488854.0,0.8
597.02,-0.15,-0.09,0.03,1.7,-9.61,1.03,467992.0,0.8
597.13,-0.14,-0.07,-0.01,1.7,-9.61,1.02,486535.0,0.8
597.23,-0.13,-0.03,-0.04,1.7,-9.61,1.02,475008.0,0.8
597.34,-0.11,-0.02,-0.04,1.7,-9.61,1.02,484173.0,0.8
597.45,-0.12,0.0,-0.05,1.7,-9.61,1.03,466244.0,0.8
597.55,-0.15,0.04,-0.05,1.71,-9.6,1.03,485259.0,0.8
597.66,-0.17,0.07,-0.05,1.72,-9.59,1.01,470438.0,0.8
597.77,-0.17,0.06,-0.04,1.72,-9.59,1.01,475773.0,0.8
597.88,-0.16,0.05,-0.04,1.72,-9.6,1.02,466358.0,0.8
597.99,-0.13,0.03,-0.03,1.7,-9.61,1.02,483543.0,0.8
598.09,-0.09,0.01,-0.02,1.7,-9.61,1.02,466433.0,0.8
598.2,-0.06,-0.01,-0.02,1.7,-9.6,1.02,475533.0,0.8
598.31,-0.08,-0.03,-0.05,1.72,-9.6,1.01,474968.0,0.8
598.42,-0.12,-0.03,-0.08,1.73,-9.61,1.01,464740.0,0.8
598.53,-0.12,-0.01,-0.07,1.73,-9.61,1.01,462857.0,0.8
598.63,-0.1,0.0,-0.06,1.72,-9.61,1.0,475440.0,0.8
598.74,-0.09,0.01,-0.06,1.7,-9.6,1.0,470843.0,0.8
598.85,-0.1,0.02,-0.07,1.69,-9.59,0.99,465524.0,0.8
598.96,-0.1,0.02,-0.07,1.68,-9.58,0.98,478458.0,0.8
599.06,-0.11,-0.0,-0.07,1.68,-9.58,0.97,461717.0,0.8
599.17,-0.13,-0.04,-0.04,1.69,-9.6,0.99,467188.0,0.8
599.28,-0.15,-0.05,-0.0,1.7,-9.62,1.0,465641.0,0.8
599.39,-0.15,-0.04,0.02,1.7,-9.63,1.01,474253.0,0.8
599.49,-0.12,-0.03,0.01,1.7,-9.62,1.01,459152.0,0.8
599.6,-0.1,-0.04,-0.01,1.7,-9.61,1.01,473778.0,0.8
599.71,-0.11,-0.05,-0.02,1.7,-9.6,1.0,462715.0,0.8
599.82,-0.14,-0.06,-0.02,1.69,-9.6,0.99,470640.0,0.8
599.92,-0.14,-0.06,-0.02,1.69,-9.59,0.99,458532.0,0.8
600.03,-0.13,-0.05,-0.01,1.69,-9.58,1.0,473076.0,0.8
600.14,-0.11,-0.03,-0.02,1.68,-9.6,1.01,460615.0,0.8
600.25,-0.11,-0.02,-0.02,1.68,-9.61,1.02,466774.0,0.8
600.35,-0.11,-0.03,-0.02,1.7,-9.61,1.02,467962.0,0.8
600.46,-0.12,-0.03,-0.02,1.71,-9.61,1.02,470740.0,0.8
600.57,-0.12,-0.0,-0.01,1.71,-9.61,1.02,457000.0,0.8
600.68,-0.12,0.04,-0.0,1.71,-9.6,1.03,465361.0,0.8
600.78,-0.14,0.06,0.01,1.7,-9.6,1.02,462992.0,0.8
600.89,-0.14,0.06,0.03,1.68,-9.6,0.99,457196.0,0.8
601.0,-0.14,0.02,0.03,1.67,-9.6,0.97,468055.0,0.8
601.11,-0.15,-0.04,0.04,1.66,-9.6,0.96,465518.0,0.8
601.21,-0.17,-0.06,0.04,1.67,-9.6,0.98,460727.0,0.8
601.32,-0.19,-0.05,0.03,1.68,-9.61,1.01,458608.0,0.8
601.43,-0.19,-0.02,0.0,1.69,-9.62,1.02,466722.0,0.8
601.54,-0.17,0.01,-0.02,1.69,-9.63,1.03,454691.0,0.8
601.64,-0.13,0.04,-0.03,1.69,-9.64,1.03,465378.0,0.8
601.75,-0.1,0.06,-0.02,1.69,-9.64,1.02,457518.0,0.8
601.86,-0.11,0.06,-0.02,1.68,-9.63,1.01,462998.0,0.8
601.97,-0.15,0.05,-0.02,1.68,-9.63,0.99,452608.0,0.8
602.07,-0.19,0.04,-0.03,1.68,-9.63,0.97,463624.0,0.8
602.18,-0.19,0.02,-0.05,1.69,-9.62,0.96,454451.0,0.8
602.29,-0.17,-0.02,-0.06,1.7,-9.61,0.97,457873.0,0.8
602.4,-0.14,-0.06,-0.05,1.72,-9.6,0.98,460558.0,0.8
602.5,-0.11,-0.07,-0.04,1.72,-9.6,0.99,463269.0,0.8
602.61,-0.09,-0.06,-0.04,1.73,-9.59,0.98,453496.0,0.8
602.72,-0.08,-0.05,-0.03,1.73,-9.6,0.98,458900.0,0.8
602.83,-0.1,-0.05,-0.02,1.72,-9.61,0.98,458132.0,0.8
602.93,-0.14,-0.02,-0.01,1.71,-9.61,0.99,452348.0,0.8
603.04,-0.16,0.01,-0.01,1.69,-9.6,1.0,460820.0,0.8
603.15,-0.16,0.01,-0.02,1.68,-9.6,1.01,457961.0,0.8
603.27,-0.13,-0.02,-0.05,1.69,-9.59,1.01,454887.0,0.8
603.37,-0.11,-0.05,-0.06,1.7,-9.59,1.0,452212.0,0.8
603.48,-0.1,-0.07,-0.06,1.71,-9.6,0.99,459056.0,0.8
603.59,-0.1,-0.06,-0.06,1.7,-9.6,0.98,450003.0,0.8
603.7,-0.1,-0.03,-0.05,1.68,-9.59,1.0,453514.0,0.8
603.8,-0.11,0.0,-0.03,1.68,-9.58,1.02,453384.0,0.8
603.91,-0.15,0.02,-0.0,1.68,-9.58,1.04,457823.0,0.8
604.02,-0.18,0.01,0.02,1.69,-9.58,1.06,449426.0,0.8
604.12,-0.17,-0.02,0.02,1.69,-9.58,1.06,457509.0,0.8
604.23,-0.15,-0.04,0.01,1.69,-9.59,1.05,450729.0,0.8
604.34,-0.13,-0.05,0.0,1.7,-9.6,1.04,452647.0,0.8
604.45,-0.13,-0.04,0.0,1.72,-9.6,1.02,448515.0,0.8
604.55,-0.13,-0.03,0.0,1.72,-9.6,1.01,456553.0,0.8
604.66,-0.12,-0.04,0.01,1.72,-9.6,1.0,449209.0,0.8
604.77,-0.11,-0.09,0.02,1.7,-9.61,0.99,453171.0,0.8
604.88,-0.12,-0.13,0.01,1.69,-9.62,0.98,453790.0,0.8
604.98,-0.15,-0.12,0.01,1.69,-9.62,1.0,449090.0,0.8
605.09,-0.18,-0.1,0.01,1.7,-9.61,1.02,448200.0,0.8
605.2,-0.19,-0.07,0.0,1.7,-9.61,1.03,452844.0,0.8
605.31,-0.2,-0.03,-0.01,1.7,-9.61,1.02,450641.0,0.8
605.41,-0.23,-0.0,-0.03,1.71,-9.59,1.01,447546.0,0.8
605.52,-0.24,0.02,-0.05,1.71,-9.59,1.0,452985.0,0.8
605.63,-0.24,0.06,-0.06,1.7,-9.58,1.0,445474.0,0.8
605.74,-0.23,0.08,-0.07,1.7,-9.57,1.02,448078.0,0.8
605.84,-0.19,0.07,-0.07,1.71,-9.57,1.02,447389.0,0.8
605.95,-0.14,0.04,-0.06,1.71,-9.59,1.02,451676.0,0.8
606.06,-0.1,0.01,-0.04,1.7,-9.6,1.01,445359.0,0.8
606.17,-0.09,-0.01,-0.02,1.7,-9.61,1.01,452023.0,0.8
606.28,-0.1,0.02,0.01,1.7,-9.61,1.0,447350.0,0.8
606.38,-0.11,0.04,0.02,1.7,-9.61,0.99,450283.0,0.8
606.49,-0.12,0.02,0.01,1.71,-9.6,0.99,444488.0,0.8
606.6,-0.13,0.01,-0.02,1.71,-9.6,1.0,450516.0,0.8
606.71,-0.14,0.01,-0.03,1.7,-9.61,1.01,444710.0,0.8
606.81,-0.15,0.02,-0.01,1.68,-9.61,1.01,447340.0,0.8
606.92,-0.13,0.03,0.0,1.67,-9.62,1.01,447811.0,0.8
607.03,-0.13,0.03,0.0,1.66,-9.62,1.0,449463.0,0.8
607.14,-0.15,0.01,-0.02,1.67,-9.62,1.0,443707.0,0.8
607.24,-0.14,-0.04,-0.04,1.68,-9.62,1.01,447705.0,0.8
607.35,-0.11,-0.08,-0.04,1.69,-9.62,1.02,446660.0,0.8
607.46,-0.06,-0.08,-0.02,1.69,-9.62,1.03,444067.0,0.8
607.57,-0.03,-0.04,-0.01,1.67,-9.61,1.03,448389.0,0.8
607.67,-0.03,0.0,-0.02,1.66,-9.6,1.02,446413.0,0.8
607.78,-0.05,0.03,-0.05,1.67,-9.6,1.02,443646.0,0.8
607.89,-0.07,0.02,-0.07,1.69,-9.61,1.03,442604.0,0.8
608.0,-0.11,-0.01,-0.07,1.71,-9.62,1.05,445745.0,0.8
608.1,-0.15,-0.04,-0.04,1.72,-9.62,1.06,440471.0,0.8
608.21,-0.15,-0.05,-0.03,1.71,-9.62,1.05,445413.0,0.8
608.32,-0.13,-0.04,-0.03,1.7,-9.62,1.03,442591.0,0.8
608.43,-0.12,-0.05,-0.03,1.7,-9.61,1.01,444770.0,0.8
608.53,-0.14,-0.05,-0.01,1.7,-9.6,1.01,440444.0,0.8
608.64,-0.18,-0.04,0.01,1.71,-9.6,1.02,445326.0,0.8
608.75,-0.19,-0.03,0.04,1.71,-9.6,1.02,440846.0,0.8
608.86,-0.18,-0.04,0.07,1.72,-9.61,1.01,442454.0,0.8
608.96,-0.15,-0.05,0.11,1.73,-9.61,1.0,439236.0,0.8
609.07,-0.14,-0.08,0.12,1.73,-9.61,0.99,443552.0,0.8
609.18,-0.14,-0.09,0.1,1.73,-9.61,1.0,438767.0,0.8
609.29,-0.14,-0.09,0.07,1.72,-9.6,1.0,441618.0,0.8
609.4,-0.13,-0.07,0.02,1.72,-9.59,1.01,440804.0,0.8
609.5,-0.12,-0.05,-0.03,1.71,-9.58,1.01,438778.0,0.8
609.61,-0.12,-0.03,-0.07,1.7,-9.58,1.0,438429.0,0.8
609.72,-0.16,-0.01,-0.09,1.69,-9.59,0.99,442028.0,0.8
609.83,-0.18,0.01,-0.09,1.69,-9.59,0.99,440066.0,0.8
609.93,-0.18,0.01,-0.08,1.68,-9.6,0.99,438858.0,0.8
610.04,-0.17,0.01,-0.06,1.68,-9.62,0.99,441272.0,0.8
610.15,-0.17,-0.01,-0.05,1.69,-9.63,0.99,436548.0,0.8
610.26,-0.17,-0.04,-0.04,1.69,-9.65,1.0,437149.0,0.8
610.36,-0.16,-0.05,-0.03,1.69,-9.65,1.01,437251.0,0.8
610.47,-0.14,-0.06,-0.02,1.7,-9.64,1.01,438918.0,0.8
610.58,-0.12,-0.06,-0.01,1.71,-9.62,1.0,435222.0,0.8
610.69,-0.11,-0.05,-0.01,1.72,-9.61,1.0,439180.0,0.8
610.79,-0.12,-0.02,-0.03,1.72,-9.6,1.01,436072.0,0.8
610.9,-0.14,-0.01,-0.05,1.71,-9.6,1.04,438526.0,0.8
611.01,-0.15,-0.01,-0.06,1.7,-9.6,1.05,435756.0,0.8
611.12,-0.13,-0.03,-0.06,1.7,-9.59,1.05,439028.0,0.8
611.22,-0.08,-0.05,-0.03,1.69,-9.59,1.05,435308.0,0.8
611.34,-0.06,-0.03,0.0,1.7,-9.59,1.05,437088.0,0.8
611.45,-0.08,0.0,0.03,1.71,-9.6,1.03,436158.0,0.8
611.55,-0.12,0.0,0.06,1.71,-9.61,1.01,436988.0,0.8
611.66,-0.16,-0.01,0.08,1.7,-9.61,1.0,433608.0,0.8
611.77,-0.19,-0.0,0.06,1.7,-9.61,0.99,436310.0,0.8
611.87,-0.19,-0.0,0.02,1.7,-9.61,1.0,435285.0,0.8
611.98,-0.17,-0.01,-0.0,1.71,-9.6,1.0,434849.0,0.8
612.09,-0.15,-0.0,-0.01,1.7,-9.6,1.0,437650.0,0.8
612.2,-0.14,0.01,-0.02,1.7,-9.6,1.0,438018.0,0.8
612.3,-0.14,0.01,-0.02,1.7,-9.6,0.99,436059.0,0.8
612.41,-0.12,-0.0,0.01,1.71,-9.59,0.98,435934.0,0.8
612.52,-0.11,-0.02,0.04,1.73,-9.6,0.99,437261.0,0.8
612.63,-0.12,-0.02,0.04,1.74,-9.61,0.99,434847.0,0.8
612.73,-0.15,-0.02,0.04,1.73,-9.61,0.98,437800.0,0.8
612.84,-0.17,-0.03,0.02,1.72,-9.61,0.97,436065.0,0.8
612.95,-0.17,-0.04,0.0,1.7,-9.62,0.96,436661.0,0.8
613.05,-0.19,-0.06,-0.02,1.68,-9.63,0.97,434787.0,0.8
613.16,-0.2,-0.05,-0.02,1.67,-9.63,1.0,437539.0,0.8
613.27,-0.19,-0.02,0.01,1.67,-9.61,1.02,435210.0,0.8
613.37,-0.17,-0.02,0.05,1.67,-9.6,1.03,436784.0,0.8
613.48,-0.13,-0.03,0.06,1.67,-9.6,1.03,436655.0,0.8
613.59,-0.1,-0.02,0.06,1.68,-9.6,1.03,436686.0,0.8
613.7,-0.09,-0.01,0.06,1.7,-9.6,1.04,433924.0,0.8
613.8,-0.12,-0.02,0.04,1.72,-9.6,1.05,435964.0,0.8
613.91,-0.14,-0.04,0.0,1.73,-9.6,1.06,435395.0,0.8
614.02,-0.16,-0.04,-0.01,1.73,-9.6,1.06,434621.0,0.8
614.12,-0.18,-0.03,0.01,1.72,-9.6,1.04,436364.0,0.8
614.23,-0.16,-0.03,0.02,1.71,-9.59,1.02,436702.0,0.8
614.34,-0.13,-0.05,0.02,1.7,-9.59,1.0,436152.0,0.8
614.45,-0.11,-0.04,0.01,1.7,-9.59,0.99,436509.0,0.8
614.55,-0.13,-0.02,-0.0,1.69,-9.59,1.0,438101.0,0.8
614.66,-0.16,-0.0,-0.02,1.69,-9.59,1.02,436103.0,0.8
614.77,-0.17,0.0,-0.04,1.69,-9.59,1.03,438102.0,0.8
614.88,-0.18,-0.01,-0.03,1.7,-9.59,1.03,435988.0,0.8
614.98,-0.18,-0.03,-0.01,1.71,-9.59,1.04,436393.0,0.8
615.09,-0.16,-0.02,0.0,1.72,-9.59,1.05,434488.0,0.8
615.2,-0.14,-0.04,0.0,1.73,-9.6,1.04,436706.0,0.8
615.31,-0.14,-0.06,0.0,1.73,-9.61,1.03,435067.0,0.8
615.41,-0.15,-0.07,0.01,1.72,-9.62,1.02,436504.0,0.8
615.52,-0.16,-0.06,0.02,1.71,-9.62,1.01,435944.0,0.8
615.63,-0.14,-0.05,0.01,1.71,-9.62,1.01,437983.0,0.8
615.74,-0.12,-0.02,-0.02,1.71,-9.62,1.03,435849.0,0.8
615.84,-0.09,0.03,-0.04,1.69,-9.61,1.04,437258.0,0.8
615.95,-0.08,0.07,-0.05,1.69,-9.61,1.03,436160.0,0.8
616.06,-0.08,0.09,-0.04,1.7,-9.61,1.01,434973.0,0.8
616.17,-0.08,0.08,-0.02,1.71,-9.6,1.0,433503.0,0.8
616.28,-0.09,0.06,-0.01,1.72,-9.59,0.99,434900.0,0.8
616.38,-0.11,0.06,0.01,1.72,-9.58,0.99,433396.0,0.8
616.49,-0.11,0.03,0.02,1.73,-9.58,0.99,433144.0,0.8
616.6,-0.11,0.0,0.01,1.73,-9.58,0.99,434353.0,0.8
616.7,-0.13,0.0,0.0,1.73,-9.59,0.99,432565.0,0.8
616.81,-0.14,0.02,0.0,1.72,-9.59,1.0,433405.0,0.8
616.92,-0.15,0.03,0.02,1.7,-9.6,1.01,433989.0,0.8
617.03,-0.16,0.03,0.04,1.7,-9.6,1.0,434095.0,0.8
617.14,-0.15,0.02,0.04,1.7,-9.6,1.0,432262.0,0.8
617.24,-0.13,0.01,0.04,1.71,-9.61,0.99,433883.0,0.8
617.35,-0.14,-0.01,0.04,1.71,-9.6,1.0,431648.0,0.8
617.46,-0.17,-0.03,0.02,1.71,-9.6,1.01,432280.0,0.8
617.57,-0.18,-0.04,-0.01,1.71,-9.61,1.02,431503.0,0.8
617.67,-0.17,-0.04,-0.02,1.7,-9.62,1.02,433061.0,0.8
617.78,-0.16,-0.04,-0.04,1.7,-9.63,1.01,431132.0,0.8
617.89,-0.16,-0.04,-0.05,1.71,-9.64,1.0,432836.0,0.8
617.99,-0.15,-0.04,-0.05,1.72,-9.65,1.02,432192.0,0.8
618.1,-0.15,-0.03,-0.03,1.73,-9.66,1.04,433213.0,0.8
618.21,-0.16,-0.01,-0.02,1.73,-9.65,1.04,431391.0,0.8
618.32,-0.19,-0.02,-0.02,1.72,-9.63,1.03,432570.0,0.8
618.43,-0.2,-0.03,-0.02,1.7,-9.61,1.02,431267.0,0.8
618.53,-0.16,-0.05,-0.02,1.69,-9.59,1.02,431028.0,0.8
618.64,-0.12,-0.07,-0.01,1.7,-9.6,1.01,431326.0,0.8
618.75,-0.09,-0.06,-0.0,1.71,-9.61,1.0,431086.0,0.8
618.86,-0.1,-0.05,-0.0,1.72,-9.61,1.0,430510.0,0.8
618.97,-0.12,-0.04,-0.01,1.74,-9.61,1.01,430853.0,0.8
619.08,-0.14,-0.03,-0.01,1.74,-9.6,1.0,431049.0,0.8
619.18,-0.14,-0.03,-0.0,1.73,-9.6,0.98,430554.0,0.8
619.29,-0.11,-0.06,0.03,1.72,-9.6,0.97,431480.0,0.8
619.4,-0.06,-0.08,0.08,1.72,-9.6,0.97,391619.0,0.8
619.51,-0.05,-0.09,0.09,1.71,-9.6,0.99,426457.0,0.8
619.62,-0.06,-0.07,0.1,1.7,-9.61,1.01,450582.0,0.8
619.72,-0.08,-0.03,0.1,1.69,-9.61,1.02,401073.0,0.8
619.83,-0.1,0.01,0.1,1.7,-9.6,1.02,453032.0,0.8
619.94,-0.11,0.04,0.09,1.7,-9.58,1.02,433163.0,0.8
620.05,-0.11,0.05,0.06,1.7,-9.57,1.01,435749.0,0.8
620.15,-0.11,0.05,0.03,1.7,-9.56,0.99,443117.0,0.8
620.26,-0.11,0.05,0.02,1.7,-9.56,0.98,421846.0,0.8
620.37,-0.13,0.06,0.03,1.7,-9.58,0.97,424774.0,0.8
620.48,-0.14,0.06,0.03,1.69,-9.61,0.98,417005.0,0.8
620.58,-0.14,0.07,0.01,1.7,-9.62,0.99,431275.0,0.8
620.69,-0.12,0.08,-0.02,1.72,-9.61,1.0,414770.0,0.8
620.8,-0.12,0.06,-0.03,1.74,-9.6,1.01,433566.0,0.8
620.91,-0.13,0.04,-0.02,1.74,-9.58,1.03,422953.0,0.8
621.02,-0.14,0.01,-0.02,1.74,-9.57,1.03,427854.0,0.8
621.12,-0.15,-0.03,-0.03,1.73,-9.57,1.04,432003.0,0.8
621.23,-0.17,-0.04,-0.03,1.73,-9.59,1.03,422287.0,0.8
621.34,-0.19,-0.03,-0.01,1.73,-9.61,1.03,423688.0,0.8
621.45,-0.21,-0.01,0.01,1.73,-9.62,1.03,429948.0,0.8
621.55,-0.21,0.01,0.02,1.73,-9.61,1.03,430185.0,0.8
621.66,-0.19,0.0,0.0,1.74,-9.6,1.04,422958.0,0.8
621.77,-0.16,-0.01,-0.02,1.74,-9.6,1.04,433930.0,0.8
621.88,-0.15,-0.03,-0.03,1.72,-9.6,1.04,422008.0,0.8
621.98,-0.16,-0.05,-0.01,1.72,-9.61,1.04,427501.0,0.8
622.09,-0.19,-0.06,0.01,1.72,-9.6,1.04,423362.0,0.8
622.2,-0.22,-0.04,0.05,1.73,-9.59,1.04,432244.0,0.8
622.31,-0.23,0.0,0.08,1.73,-9.6,1.03,421132.0,0.8
622.42,-0.22,0.02,0.09,1.73,-9.61,1.02,430659.0,0.8
622.52,-0.2,0.02,0.07,1.72,-9.62,1.0,425441.0,0.8
622.63,-0.2,0.02,0.05,1.7,-9.61,0.99,430926.0,0.8
622.74,-0.2,0.02,0.03,1.7,-9.6,1.0,420983.0,0.8
622.85,-0.19,0.03,0.03,1.7,-9.6,1.02,430898.0,0.8
622.95,-0.18,0.04,0.02,1.7,-9.6,1.04,423318.0,0.8
623.06,-0.17,0.04,-0.0,1.71,-9.61,1.04,425516.0,0.8
623.17,-0.18,0.03,-0.04,1.71,-9.61,1.02,428961.0,0.8
623.28,-0.21,0.02,-0.06,1.72,-9.61,1.0,430654.0,0.8
623.38,-0.22,0.03,-0.07,1.72,-9.61,1.01,421705.0,0.8
623.49,-0.21,0.03,-0.05,1.71,-9.61,1.02,426262.0,0.8
623.6,-0.2,0.03,-0.03,1.7,-9.61,1.03,427132.0,0.8
623.71,-0.18,-0.0,-0.01,1.71,-9.61,1.03,421012.0,0.8
623.81,-0.17,-0.03,-0.01,1.71,-9.61,1.03,430091.0,0.8
623.92,-0.17,-0.05,-0.05,1.72,-9.62,1.02,426848.0,0.8
624.03,-0.19,-0.04,-0.07,1.72,-9.63,1.0,424954.0,0.8
624.14,-0.2,-0.03,-0.06,1.72,-9.64,1.0,420999.0,0.8
624.24,-0.2,-0.04,-0.04,1.72,-9.64,1.0,428397.0,0.8
624.35,-0.16,-0.04,-0.04,1.72,-9.64,0.99,418965.0,0.8
624.46,-0.13,-0.05,-0.04,1.71,-9.64,0.98,426586.0,0.8
624.57,-0.12,-0.07,-0.03,1.7,-9.64,0.98,421371.0,0.8
624.67,-0.13,-0.08,-0.03,1.7,-9.63,1.0,427132.0,0.8
624.78,-0.13,-0.05,-0.04,1.69,-9.62,1.0,418804.0,0.8
624.89,-0.12,-0.02,-0.02,1.69,-9.62,0.99,427188.0,0.8
625.0,-0.11,-0.0,-0.01,1.69,-9.61,1.0,421613.0,0.8
625.1,-0.13,0.01,0.01,1.69,-9.6,1.01,422737.0,0.8
625.21,-0.16,0.03,0.02,1.69,-9.59,1.02,419120.0,0.8
625.32,-0.19,0.03,0.04,1.69,-9.59,1.03,427008.0,0.8
625.43,-0.2,0.02,0.03,1.7,-9.61,1.03,420185.0,0.8
625.54,-0.19,0.01,-0.01,1.7,-9.62,1.02,423343.0,0.8
625.65,-0.17,0.02,-0.05,1.7,-9.62,1.01,424438.0,0.8
625.75,-0.15,0.02,-0.05,1.71,-9.61,1.01,419183.0,0.8
625.86,-0.15,0.01,-0.05,1.72,-9.6,1.02,419379.0,0.8
625.97,-0.15,0.01,-0.05,1.72,-9.6,1.02,424328.0,0.8
626.08,-0.14,0.03,-0.07,1.72,-9.6,1.01,423372.0,0.8
626.18,-0.13,0.05,-0.09,1.72,-9.6,1.02,420110.0,0.8
626.3,-0.13,0.07,-0.08,1.7,-9.61,1.05,426344.0,0.8
626.4,-0.13,0.08,-0.05,1.69,-9.62,1.06,419033.0,0.8
626.51,-0.13,0.07,-0.02,1.69,-9.62,1.05,421794.0,0.8
626.62,-0.14,0.04,-0.0,1.69,-9.61,1.03,420535.0,0.8
626.73,-0.16,0.02,-0.01,1.69,-9.6,1.0,424987.0,0.8
626.84,-0.17,0.02,-0.01,1.7,-9.6,0.99,418287.0,0.8
626.94,-0.17,0.04,0.01,1.7,-9.58,0.98,424782.0,0.8
627.05,-0.16,0.05,0.02,1.7,-9.58,0.98,420459.0,0.8
627.16,-0.14,0.04,0.03,1.72,-9.59,0.99,424317.0,0.8
627.27,-0.14,0.03,0.03,1.73,-9.6,1.01,418652.0,0.8
627.38,-0.15,0.01,0.02,1.73,-9.6,1.01,425197.0,0.8
627.48,-0.15,0.0,0.0,1.71,-9.6,1.0,419776.0,0.8
627.59,-0.16,0.03,-0.0,1.71,-9.6,1.0,422007.0,0.8
627.7,-0.17,0.05,0.0,1.71,-9.6,1.01,423209.0,0.8
627.81,-0.18,0.06,0.01,1.72,-9.59,1.01,424533.0,0.8
627.92,-0.2,0.05,0.03,1.73,-9.57,1.0,418438.0,0.8
628.03,-0.22,0.02,0.04,1.72,-9.57,0.99,421989.0,0.8
628.13,-0.21,-0.03,0.04,1.71,-9.58,1.0,421493.0,0.8
628.24,-0.16,-0.07,0.02,1.71,-9.6,1.02,418416.0,0.8
628.35,-0.11,-0.08,0.02,1.71,-9.6,1.03,423655.0,0.8
628.46,-0.09,-0.06,0.02,1.7,-9.59,1.03,422489.0,0.8
628.56,-0.07,-0.03,0.02,1.7,-9.59,1.01,420524.0,0.8
628.67,-0.08,0.02,0.0,1.7,-9.6,1.0,419351.0,0.8
628.78,-0.11,0.06,-0.02,1.69,-9.6,0.98,423066.0,0.8
628.89,-0.13,0.07,-0.03,1.68,-9.62,0.97,417575.0,0.8
629.0,-0.1,0.07,-0.05,1.68,-9.63,0.97,422613.0,0.8
629.11,-0.08,0.04,-0.06,1.69,-9.63,0.98,419603.0,0.8
629.21,-0.08,-0.02,-0.05,1.7,-9.62,1.0,421893.0,0.8
629.32,-0.1,-0.07,-0.03,1.71,-9.62,1.01,417374.0,0.8
629.43,-0.11,-0.1,-0.03,1.71,-9.62,1.01,422555.0,0.8
629.54,-0.12,-0.09,-0.01,1.7,-9.62,1.01,418680.0,0.8
629.65,-0.11,-0.07,-0.01,1.7,-9.61,1.01,421500.0,0.8
629.76,-0.09,-0.05,-0.02,1.72,-9.6,1.0,418393.0,0.8
629.86,-0.08,-0.04,-0.01,1.73,-9.6,0.99,422851.0,0.8
629.97,-0.06,-0.02,0.0,1.74,-9.6,1.0,418359.0,0.8
630.08,-0.08,-0.01,0.01,1.75,-9.59,1.01,421246.0,0.8
630.19,-0.11,0.02,-0.0,1.74,-9.58,1.02,420330.0,0.8
630.29,-0.13,0.04,-0.02,1.71,-9.58,1.04,422005.0,0.8
630.4,-0.15,0.04,-0.03,1.7,-9.59,1.06,417143.0,0.8
630.51,-0.16,0.03,-0.01,1.7,-9.59,1.05,421365.0,0.8
630.62,-0.15,0.03,0.0,1.7,-9.59,1.03,418898.0,0.8
630.73,-0.13,0.03,0.01,1.69,-9.59,1.0,418619.0,0.8
630.84,-0.13,0.03,0.02,1.68,-9.6,1.0,421508.0,0.8
630.94,-0.14,-0.0,0.03,1.69,-9.61,1.02,421589.0,0.8
631.05,-0.16,-0.05,0.05,1.69,-9.61,1.03,418055.0,0.8
631.16,-0.16,-0.06,0.05,1.69,-9.6,1.02,419091.0,0.8
631.27,-0.14,-0.07,0.04,1.7,-9.6,1.02,420289.0,0.8
631.37,-0.14,-0.08,0.01,1.7,-9.6,1.03,416596.0,0.8
631.48,-0.16,-0.07,-0.02,1.71,-9.6,1.03,420874.0,0.8
631.59,-0.19,-0.06,-0.04,1.72,-9.6,1.03,419234.0,0.8
631.7,-0.18,-0.07,-0.04,1.73,-9.6,1.02,419148.0,0.8
631.8,-0.15,-0.07,-0.02,1.72,-9.59,1.0,416727.0,0.8
631.91,-0.13,-0.05,0.0,1.72,-9.6,1.0,420649.0,0.8
632.02,-0.12,-0.04,0.02,1.72,-9.6,1.0,416402.0,0.8
632.13,-0.13,-0.03,0.02,1.72,-9.6,0.99,419611.0,0.8
632.24,-0.15,-0.03,0.02,1.71,-9.6,0.99,417139.0,0.8
632.34,-0.16,-0.03,0.0,1.71,-9.61,1.0,420181.0,0.8
632.45,-0.18,-0.02,-0.03,1.71,-9.61,1.01,415874.0,0.8
632.56,-0.18,-0.0,-0.04,1.72,-9.61,1.02,419502.0,0.8
632.67,-0.19,-0.0,-0.02,1.7,-9.62,1.02,417057.0,0.8
632.78,-0.19,-0.01,0.01,1.69,-9.61,1.02,417010.0,0.8
632.88,-0.19,-0.03,0.02,1.69,-9.61,1.02,415284.0,0.8
632.99,-0.18,-0.04,0.02,1.69,-9.61,1.03,419399.0,0.8
633.1,-0.18,-0.06,0.0,1.69,-9.6,1.03,416073.0,0.8
633.21,-0.17,-0.09,-0.01,1.7,-9.59,1.03,417349.0,0.8
633.32,-0.16,-0.11,-0.02,1.71,-9.59,1.02,418200.0,0.8
633.42,-0.15,-0.11,-0.0,1.71,-9.6,1.01,415413.0,0.8
633.53,-0.14,-0.1,0.03,1.7,-9.61,1.01,415219.0,0.8
633.64,-0.11,-0.08,0.08,1.69,-9.62,1.0,417384.0,0.8
633.74,-0.1,-0.06,0.12,1.69,-9.62,1.0,416809.0,0.8
633.85,-0.1,-0.04,0.13,1.7,-9.6,1.01,414865.0,0.8
633.96,-0.11,-0.04,0.12,1.73,-9.6,1.01,417757.0,0.8
634.07,-0.13,-0.05,0.09,1.73,-9.6,1.02,414186.0,0.8
634.17,-0.16,-0.05,0.04,1.73,-9.6,1.04,415515.0,0.8
634.28,-0.19,-0.03,-0.0,1.73,-9.6,1.06,414995.0,0.8
634.39,-0.18,-0.02,-0.02,1.73,-9.61,1.07,417068.0,0.8
634.5,-0.15,-0.02,-0.01,1.72,-9.61,1.07,413985.0,0.8
634.61,-0.15,-0.02,-0.02,1.7,-9.62,1.06,416873.0,0.8
634.71,-0.17,-0.03,-0.02,1.68,-9.62,1.04,414791.0,0.8
634.82,-0.2,-0.04,-0.02,1.67,-9.63,1.02,415932.0,0.8
634.93,-0.19,-0.03,-0.03,1.67,-9.63,1.01,413322.0,0.8
635.04,-0.18,-0.0,-0.03,1.68,-9.62,1.01,415808.0,0.8
635.15,-0.17,0.02,-0.01,1.71,-9.61,1.01,413527.0,0.8
635.25,-0.17,0.04,-0.01,1.73,-9.61,1.01,414420.0,0.8
635.36,-0.15,0.05,-0.01,1.74,-9.61,1.01,414931.0,0.8
635.47,-0.12,0.04,-0.01,1.74,-9.61,1.01,415651.0,0.8
635.58,-0.12,0.04,-0.01,1.73,-9.61,1.0,413417.0,0.8
635.68,-0.12,0.03,0.01,1.72,-9.61,0.98,414785.0,0.8
635.79,-0.14,-0.01,0.04,1.71,-9.61,0.96,414554.0,0.8
635.9,-0.17,-0.03,0.06,1.71,-9.61,0.96,413280.0,0.8
636.01,-0.18,-0.02,0.06,1.72,-9.62,0.98,415030.0,0.8
636.11,-0.17,-0.01,0.03,1.72,-9.62,1.0,414306.0,0.8
636.22,-0.16,-0.01,0.01,1.73,-9.61,1.01,413287.0,0.8
636.33,-0.17,-0.03,0.01,1.73,-9.6,1.02,412886.0,0.8
636.44,-0.18,-0.04,0.01,1.74,-9.59,1.02,414228.0,0.8
636.54,-0.17,-0.05,0.01,1.73,-9.59,1.03,412160.0,0.8
636.65,-0.14,-0.05,0.0,1.72,-9.59,1.04,414372.0,0.8
636.76,-0.13,-0.03,-0.0,1.72,-9.59,1.04,413342.0,0.8
636.87,-0.14,0.01,-0.01,1.71,-9.59,1.02,414015.0,0.8
636.97,-0.15,0.04,-0.02,1.71,-9.59,1.0,412306.0,0.8
637.08,-0.14,0.05,-0.03,1.72,-9.6,0.99,414365.0,0.8
637.19,-0.13,0.04,-0.03,1.74,-9.6,0.99,412213.0,0.8
637.3,-0.12,0.04,-0.04,1.74,-9.61,0.99,413266.0,0.8
637.41,-0.11,0.03,-0.04,1.74,-9.6,0.99,411714.0,0.8
637.51,-0.11,0.01,-0.03,1.74,-9.6,0.99,413641.0,0.8
637.62,-0.1,-0.01,-0.01,1.75,-9.59,1.01,411328.0,0.8
637.73,-0.1,-0.03,0.01,1.75,-9.6,1.02,413070.0,0.8
637.83,-0.09,-0.05,0.01,1.74,-9.59,1.02,412398.0,0.8
637.94,-0.1,-0.05,-0.01,1.72,-9.59,1.03,411699.0,0.8
638.05,-0.13,-0.04,-0.02,1.72,-9.59,1.03,411410.0,0.8
638.16,-0.14,-0.02,-0.04,1.73,-9.6,1.02,413138.0,0.8
638.27,-0.15,-0.01,-0.07,1.72,-9.61,1.0,412073.0,0.8
638.37,-0.14,-0.0,-0.1,1.72,-9.61,0.99,412156.0,0.8
638.48,-0.13,0.0,-0.1,1.71,-9.62,1.0,412483.0,0.8
638.59,-0.13,-0.01,-0.07,1.71,-9.63,1.01,411174.0,0.8
638.7,-0.12,-0.02,-0.03,1.73,-9.62,1.03,410884.0,0.8
638.8,-0.11,-0.02,0.0,1.74,-9.61,1.03,412149.0,0.8
638.91,-0.12,-0.04,-0.0,1.74,-9.61,1.03,411974.0,0.8
639.02,-0.14,-0.06,-0.03,1.73,-9.61,1.02,411051.0,0.8
639.13,-0.16,-0.06,-0.04,1.72,-9.61,1.0,412901.0,0.8
639.24,-0.17,-0.04,-0.03,1.71,-9.61,1.0,410853.0,0.8
639.34,-0.16,-0.02,-0.0,1.7,-9.59,1.01,412362.0,0.8
639.45,-0.17,-0.0,0.01,1.69,-9.58,1.01,410990.0,0.8
639.56,-0.19,0.02,0.01,1.68,-9.58,1.0,412165.0,0.8
639.66,-0.2,0.03,0.01,1.67,-9.6,1.0,410090.0,0.8
639.77,-0.17,0.03,0.01,1.67,-9.61,1.0,411745.0,0.8
639.88,-0.13,0.01,0.0,1.69,-9.61,0.99,410440.0,0.8
639.99,-0.12,-0.02,0.01,1.7,-9.62,0.98,410579.0,0.8
640.09,-0.12,-0.03,0.01,1.72,-9.62,0.98,409685.0,0.8
640.2,-0.14,-0.02,-0.02,1.71,-9.61,0.98,411427.0,0.8
640.31,-0.15,-0.02,-0.04,1.7,-9.61,0.98,409806.0,0.8
640.41,-0.16,-0.0,-0.05,1.7,-9.62,0.97,410586.0,0.8
640.52,-0.16,0.01,-0.06,1.7,-9.62,0.97,410664.0,0.8
640.63,-0.14,-0.0,-0.07,1.71,-9.62,0.98,409556.0,0.8
640.74,-0.14,-0.04,-0.07,1.71,-9.61,0.99,409080.0,0.8
640.84,-0.15,-0.08,-0.05,1.7,-9.6,1.0,410420.0,0.8
640.95,-0.15,-0.09,-0.02,1.71,-9.59,1.03,409637.0,0.8
641.06,-0.15,-0.04,0.0,1.72,-9.58,1.04,408791.0,0.8
641.17,-0.14,0.02,0.03,1.72,-9.57,1.03,410148.0,0.8
641.27,-0.13,0.06,0.04,1.71,-9.57,1.02,408065.0,0.8
641.38,-0.14,0.09,0.03,1.7,-9.58,1.02,409072.0,0.8
641.49,-0.15,0.09,0.02,1.69,-9.6,1.03,409025.0,0.8
641.6,-0.17,0.11,0.0,1.7,-9.59,1.03,410465.0,0.8
641.7,-0.19,0.11,-0.02,1.7,-9.59,1.03,408072.0,0.8
641.81,-0.2,0.07,-0.02,1.7,-9.58,1.04,410494.0,0.8
641.92,-0.19,0.03,0.0,1.7,-9.58,1.04,408731.0,0.8
642.03,-0.17,0.02,-0.0,1.72,-9.58,1.05,409629.0,0.8
642.13,-0.13,0.02,-0.02,1.73,-9.59,1.04,408053.0,0.8
642.24,-0.12,0.01,0.0,1.73,-9.6,1.02,409867.0,0.8
642.35,-0.12,-0.02,0.03,1.72,-9.61,1.01,407634.0,0.8
642.46,-0.13,-0.03,0.04,1.71,-9.61,1.01,408803.0,0.8
642.56,-0.12,-0.03,0.02,1.7,-9.59,1.02,408488.0,0.8
642.67,-0.1,-0.03,0.0,1.7,-9.58,1.03,409829.0,0.8
642.78,-0.1,-0.03,-0.0,1.69,-9.58,1.04,407377.0,0.8
642.89,-0.12,-0.01,0.01,1.69,-9.58,1.05,409533.0,0.8
642.99,-0.13,0.03,0.05,1.69,-9.58,1.05,408850.0,0.8
643.1,-0.14,0.06,0.1,1.7,-9.59,1.03,408260.0,0.8
643.21,-0.15,0.07,0.12,1.71,-9.59,1.0,409439.0,0.8
643.32,-0.15,0.09,0.11,1.72,-9.59,0.99,409256.0,0.8
643.42,-0.12,0.09,0.08,1.72,-9.58,0.99,408494.0,0.8
643.53,-0.1,0.09,0.04,1.72,-9.59,1.02,408486.0,0.8
643.64,-0.12,0.07,-0.01,1.72,-9.6,1.03,409353.0,0.8
643.74,-0.14,0.05,-0.04,1.73,-9.6,1.03,408138.0,0.8
643.85,-0.14,0.05,-0.04,1.73,-9.6,1.02,409526.0,0.8
643.96,-0.13,0.05,-0.01,1.71,-9.6,1.02,408771.0,0.8
644.07,-0.13,0.04,0.03,1.69,-9.61,1.01,409351.0,0.8
644.17,-0.14,0.01,0.06,1.67,-9.61,1.01,408114.0,0.8
644.28,-0.15,-0.03,0.08,1.66,-9.62,1.0,409197.0,0.8
644.39,-0.14,-0.01,0.05,1.67,-9.62,1.0,408090.0,0.8
644.5,-0.14,0.02,-0.01,1.68,-9.62,1.0,408286.0,0.8
644.6,-0.15,0.05,-0.03,1.68,-9.62,1.01,408350.0,0.8
644.71,-0.15,0.07,-0.02,1.68,-9.62,1.01,408400.0,0.8
644.82,-0.12,0.07,0.01,1.68,-9.62,1.02,407257.0,0.8
644.93,-0.1,0.04,0.0,1.7,-9.62,1.03,407856.0,0.8
645.04,-0.09,0.01,-0.04,1.71,-9.6,1.03,407738.0,0.8
645.14,-0.09,-0.02,-0.06,1.71,-9.59,1.03,407333.0,0.8
645.25,-0.09,-0.05,-0.05,1.71,-9.59,1.02,408059.0,0.8
645.36,-0.1,-0.07,-0.05,1.71,-9.59,1.02,407850.0,0.8
645.47,-0.11,-0.05,-0.03,1.71,-9.6,1.03,407394.0,0.8
645.57,-0.13,-0.02,-0.01,1.7,-9.59,1.03,407203.0,0.8
645.68,-0.15,-0.01,0.01,1.69,-9.6,1.03,407507.0,0.8
645.79,-0.16,0.0,-0.0,1.7,-9.6,1.01,406694.0,0.8
645.9,-0.14,0.01,-0.01,1.71,-9.6,0.99,407214.0,0.8
646.0,-0.1,0.01,0.01,1.72,-9.6,0.98,406793.0,0.8
646.11,-0.07,-0.0,0.03,1.72,-9.61,0.97,407007.0,0.8
646.22,-0.06,0.0,0.06,1.71,-9.63,0.98,406546.0,0.8
646.33,-0.06,0.02,0.07,1.7,-9.64,1.0,407182.0,0.8
646.43,-0.09,0.02,0.04,1.68,-9.65,1.01,406523.0,0.8
646.54,-0.15,-0.03,-0.02,1.68,-9.66,1.02,406809.0,0.8
646.65,-0.19,-0.08,-0.05,1.68,-9.66,1.03,406196.0,0.8
646.76,-0.22,-0.1,-0.03,1.69,-9.64,1.03,406671.0,0.8
646.86,-0.23,-0.06,0.0,1.7,-9.61,1.02,405962.0,0.8
646.97,-0.22,0.0,0.03,1.71,-9.6,1.02,406047.0,0.8
647.08,-0.2,0.06,0.02,1.72,-9.59,1.03,406010.0,0.8
647.19,-0.18,0.09,0.0,1.72,-9.59,1.05,405657.0,0.8
647.29,-0.16,0.09,-0.01,1.72,-9.59,1.06,405498.0,0.8
647.4,-0.14,0.08,-0.03,1.72,-9.6,1.05,405811.0,0.8
647.51,-0.12,0.07,-0.04,1.72,-9.6,1.04,405476.0,0.8
647.62,-0.11,0.08,-0.04,1.72,-9.6,1.03,405482.0,0.8
647.73,-0.12,0.07,-0.04,1.71,-9.6,1.02,405713.0,0.8
647.84,-0.14,0.03,-0.02,1.7,-9.6,1.01,405343.0,0.8
647.94,-0.17,-0.03,0.01,1.71,-9.6,1.0,405183.0,0.8
648.05,-0.18,-0.06,0.03,1.73,-9.6,0.99,405232.0,0.8
648.16,-0.18,-0.06,0.03,1.73,-9.6,1.0,405062.0,0.8
648.27,-0.17,-0.05,0.02,1.73,-9.59,1.0,404532.0,0.8
648.37,-0.15,-0.05,0.0,1.74,-9.59,0.99,404908.0,0.8
648.48,-0.11,-0.05,-0.0,1.73,-9.59,0.98,404359.0,0.8
648.59,-0.1,-0.02,-0.01,1.72,-9.58,0.97,404538.0,0.8
648.7,-0.1,0.01,-0.04,1.71,-9.58,0.97,404360.0,0.8
648.8,-0.11,0.04,-0.05,1.7,-9.6,0.99,404780.0,0.8
648.91,-0.14,0.03,-0.02,1.7,-9.62,1.0,404216.0,0.8
649.02,-0.16,0.03,0.01,1.71,-9.63,1.0,404802.0,0.8
649.13,-0.15,0.01,0.04,1.71,-9.62,1.0,404294.0,0.8
649.23,-0.14,-0.02,0.06,1.71,-9.61,1.0,404339.0,0.8
649.34,-0.13,-0.08,0.03,1.7,-9.6,1.01,403510.0,0.8
649.45,-0.12,-0.12,-0.01,1.69,-9.6,1.02,404010.0,0.8
649.56,-0.1,-0.13,-0.01,1.69,-9.59,1.02,403401.0,0.8
649.66,-0.1,-0.11,-0.01,1.71,-9.58,1.01,403439.0,0.8
649.77,-0.11,-0.07,-0.01,1.72,-9.57,1.01,403624.0,0.8
649.88,-0.14,-0.05,-0.05,1.72,-9.57,1.02,403704.0,0.8
649.99,-0.16,-0.04,-0.08,1.71,-9.58,1.03,402709.0,0.8
650.09,-0.16,-0.03,-0.08,1.7,-9.59,1.03,403349.0,0.8
650.2,-0.17,-0.03,-0.05,1.7,-9.6,1.03,403251.0,0.8
650.31,-0.16,-0.03,-0.04,1.71,-9.6,1.03,402986.0,0.8
650.42,-0.14,-0.01,-0.04,1.71,-9.6,1.02,403000.0,0.8
650.53,-0.14,0.02,-0.04,1.71,-9.59,1.01,404086.0,0.8
650.64,-0.13,0.03,-0.04,1.71,-9.58,1.01,401168.0,0.8
650.74,-0.12,0.03,-0.05,1.71,-9.57,1.02,402455.0,0.8
650.85,-0.14,0.03,-0.05,1.72,-9.58,1.03,402568.0,0.8
650.96,-0.17,-0.0,-0.03,1.72,-9.58,1.02,400686.0,0.8
651.07,-0.2,-0.04,-0.02,1.71,-9.58,1.01,403499.0,0.8
651.17,-0.19,-0.05,-0.02,1.71,-9.59,1.0,402536.0,0.8
651.28,-0.16,-0.05,-0.03,1.7,-9.59,1.0,402079.0,0.8
651.39,-0.15,-0.05,-0.03,1.69,-9.6,1.0,401052.0,0.8
651.5,-0.14,-0.04,-0.02,1.69,-9.61,1.01,402798.0,0.8
651.6,-0.13,-0.01,-0.02,1.69,-9.6,1.03,400108.0,0.8
651.71,-0.14,0.01,-0.01,1.71,-9.59,1.04,402136.0,0.8
651.82,-0.16,0.01,0.01,1.73,-9.58,1.04,400415.0,0.8
651.93,-0.16,0.02,0.01,1.74,-9.58,1.02,401796.0,0.8
652.03,-0.16,0.04,0.01,1.74,-9.58,0.99,399309.0,0.8
652.14,-0.16,0.05,-0.0,1.73,-9.59,0.98,401452.0,0.8
652.25,-0.16,0.05,-0.02,1.73,-9.59,0.97,399627.0,0.8
652.36,-0.15,0.05,-0.04,1.73,-9.6,0.98,399812.0,0.8
652.46,-0.13,0.03,-0.05,1.72,-9.63,0.99,398917.0,0.8
652.57,-0.13,-0.0,-0.03,1.71,-9.64,1.02,400550.0,0.8
652.68,-0.13,-0.02,-0.01,1.71,-9.63,1.03,398711.0,0.8
652.79,-0.12,-0.03,-0.01,1.7,-9.63,1.04,399549.0,0.8
652.89,-0.12,-0.03,-0.01,1.7,-9.62,1.04,399241.0,0.8
653.0,-0.12,-0.02,0.0,1.7,-9.62,1.04,398494.0,0.8
653.11,-0.12,-0.02,-0.01,1.7,-9.62,1.04,397870.0,0.8
653.22,-0.1,0.0,-0.04,1.69,-9.62,1.04,399248.0,0.8
653.32,-0.1,0.05,-0.07,1.68,-9.62,1.03,398502.0,0.8
653.43,-0.11,0.09,-0.08,1.69,-9.61,1.02,398471.0,0.8
653.53,-0.12,0.12,-0.08,1.7,-9.6,1.0,399215.0,0.8
653.65,-0.11,0.11,-0.08,1.72,-9.6,0.98,397888.0,0.8
653.75,-0.09,0.07,-0.06,1.74,-9.6,0.99,399505.0,0.8
653.86,-0.08,0.03,-0.03,1.73,-9.59,1.0,398678.0,0.8
653.97,-0.07,0.01,-0.0,1.72,-9.59,1.01,398556.0,0.8
654.07,-0.07,-0.02,0.03,1.71,-9.61,1.01,397389.0,0.8
654.18,-0.08,-0.04,0.04,1.69,-9.61,1.01,398466.0,0.8
654.29,-0.09,-0.03,0.03,1.69,-9.61,1.0,396689.0,0.8
654.4,-0.1,-0.0,0.01,1.69,-9.6,1.0,397686.0,0.8
654.5,-0.12,0.04,-0.01,1.69,-9.59,1.0,396798.0,0.8
654.61,-0.14,0.08,-0.02,1.69,-9.6,1.0,397809.0,0.8
654.72,-0.16,0.09,-0.03,1.7,-9.6,0.99,396403.0,0.8
654.83,-0.17,0.08,-0.03,1.71,-9.6,0.97,397734.0,0.8
654.93,-0.17,0.04,-0.05,1.71,-9.6,0.95,396827.0,0.8
655.04,-0.16,-0.01,-0.07,1.7,-9.6,0.96,396749.0,0.8
655.15,-0.16,-0.04,-0.08,1.7,-9.6,0.97,395978.0,0.8
655.26,-0.17,-0.05,-0.09,1.71,-9.6,0.98,397113.0,0.8
655.36,-0.18,-0.05,-0.08,1.72,-9.61,0.98,395946.0,0.8
655.47,-0.22,-0.06,-0.05,1.72,-9.62,0.98,396202.0,0.8
655.58,-0.24,-0.07,-0.01,1.72,-9.62,0.98,396391.0,0.8
655.69,-0.23,-0.06,0.02,1.72,-9.6,0.99,395500.0,0.8
655.79,-0.19,-0.05,0.04,1.71,-9.59,1.01,395468.0,0.8
655.9,-0.14,-0.05,0.06,1.71,-9.58,1.02,396155.0,0.8
656.01,-0.11,-0.05,0.05,1.71,-9.58,1.02,396060.0,0.8
656.11,-0.08,-0.05,0.02,1.72,-9.59,1.01,395413.0,0.8
656.22,-0.08,-0.02,-0.02,1.72,-9.59,1.0,396429.0,0.8
656.33,-0.09,-0.01,-0.04,1.71,-9.59,1.0,395198.0,0.8
656.44,-0.11,0.0,-0.04,1.7,-9.6,1.01,395478.0,0.8
656.55,-0.14,-0.01,-0.02,1.7,-9.61,1.03,395033.0,0.8
656.65,-0.17,-0.04,-0.01,1.7,-9.61,1.04,395857.0,0.8
656.76,-0.17,-0.05,-0.02,1.7,-9.62,1.04,394674.0,0.8
656.87,-0.17,-0.04,-0.01,1.69,-9.62,1.03,395833.0,0.8
656.98,-0.16,-0.04,0.0,1.69,-9.62,1.0,395043.0,0.8
657.08,-0.13,-0.02,-0.0,1.7,-9.62,0.99,395662.0,0.8
657.19,-0.12,0.0,-0.02,1.71,-9.61,0.98,394559.0,0.8
657.3,-0.13,0.03,-0.04,1.71,-9.6,0.99,395755.0,0.8
657.41,-0.14,0.04,-0.02,1.71,-9.59,0.99,394534.0,0.8
657.51,-0.12,0.03,-0.01,1.71,-9.59,1.0,395039.0,0.8
657.62,-0.1,0.03,-0.01,1.72,-9.59,1.01,394854.0,0.8
657.73,-0.11,0.02,-0.01,1.73,-9.59,1.02,394929.0,0.8
657.84,-0.12,0.01,-0.02,1.74,-9.58,1.01,393926.0,0.8
657.94,-0.12,0.0,-0.01,1.73,-9.58,1.01,394512.0,0.8
658.05,-0.12,-0.01,-0.0,1.7,-9.59,1.0,394125.0,0.8
658.16,-0.1,-0.02,0.01,1.69,-9.6,1.01,393958.0,0.8
658.26,-0.1,-0.02,-0.0,1.68,-9.62,1.01,394492.0,0.8
658.37,-0.12,-0.01,-0.01,1.68,-9.62,1.02,394409.0,0.8
658.48,-0.14,0.01,0.01,1.7,-9.62,1.02,393914.0,0.8
658.59,-0.15,0.02,0.02,1.71,-9.62,1.03,393834.0,0.8
658.69,-0.15,-0.0,-0.0,1.71,-9.62,1.03,393903.0,0.8
658.8,-0.15,-0.03,-0.03,1.7,-9.62,1.03,393340.0,0.8
658.91,-0.17,-0.03,-0.05,1.69,-9.61,1.02,393717.0,0.8
659.02,-0.17,-0.02,-0.07,1.7,-9.6,1.01,393116.0,0.8
659.12,-0.15,-0.02,-0.07,1.71,-9.6,1.01,393216.0,0.8
659.23,-0.11,-0.03,-0.06,1.72,-9.6,1.01,392833.0,0.8
659.34,-0.08,-0.02,-0.05,1.73,-9.6,1.01,393262.0,0.8
659.45,-0.07,0.0,-0.03,1.74,-9.59,1.01,392643.0,0.8
659.55,-0.09,0.02,-0.02,1.74,-9.58,1.01,393020.0,0.8
659.66,-0.11,0.03,-0.0,1.73,-9.58,0.99,392764.0,0.8
659.77,-0.13,0.05,0.02,1.71,-9.58,0.98,392808.0,0.8
659.88,-0.14,0.05,0.04,1.71,-9.58,0.98,392081.0,0.8
659.98,-0.15,0.03,0.05,1.71,-9.59,0.97,392438.0,0.8
660.09,-0.16,0.01,0.04,1.7,-9.61,0.97,392056.0,0.8
660.2,-0.16,0.01,0.03,1.7,-9.63,0.98,391896.0,0.8
660.31,-0.14,0.0,0.03,1.71,-9.63,1.0,392155.0,0.8
660.41,-0.11,0.0,0.03,1.71,-9.62,1.0,392111.0,0.8
660.52,-0.09,0.01,0.04,1.71,-9.61,0.99,391663.0,0.8
660.63,-0.1,0.01,0.03,1.71,-9.6,0.98,391756.0,0.8
660.74,-0.11,-0.0,0.03,1.71,-9.6,0.98,391933.0,0.8
660.84,-0.12,-0.03,0.04,1.71,-9.6,0.98,391560.0,0.8
660.95,-0.1,-0.05,0.03,1.72,-9.59,0.99,392016.0,0.8
661.06,-0.08,-0.05,0.01,1.71,-9.58,0.98,391579.0,0.8
661.16,-0.1,-0.04,0.01,1.72,-9.58,0.98,391420.0,0.8
661.27,-0.14,-0.05,-0.01,1.73,-9.58,0.98,391096.0,0.8
661.38,-0.17,-0.06,-0.02,1.72,-9.57,0.98,391297.0,0.8
661.49,-0.16,-0.05,-0.0,1.72,-9.58,0.99,390938.0,0.8
661.6,-0.15,-0.04,0.03,1.72,-9.58,1.0,391092.0,0.8
661.7,-0.15,-0.03,0.04,1.73,-9.58,0.99,390869.0,0.8
661.81,-0.16,-0.01,0.01,1.72,-9.59,0.99,391034.0,0.8
661.92,-0.16,-0.0,0.0,1.72,-9.6,1.0,390738.0,0.8
662.03,-0.15,-0.03,0.03,1.7,-9.58,1.0,390994.0,0.8
662.14,-0.14,-0.06,0.05,1.69,-9.57,1.01,390724.0,0.8
662.24,-0.15,-0.07,0.04,1.68,-9.57,1.01,390682.0,0.8
662.35,-0.18,-0.05,0.02,1.69,-9.58,1.01,390236.0,0.8
662.46,-0.2,-0.02,-0.0,1.7,-9.59,1.01,390390.0,0.8
662.57,-0.18,-0.01,-0.01,1.7,-9.6,1.01,389973.0,0.8
662.67,-0.16,0.0,-0.01,1.69,-9.62,1.01,390060.0,0.8
662.78,-0.15,0.01,0.02,1.68,-9.61,1.01,389997.0,0.8
662.89,-0.13,0.03,0.06,1.69,-9.61,1.02,389764.0,0.8
662.99,-0.11,0.04,0.08,1.71,-9.6,1.02,389712.0,0.8
663.1,-0.11,0.03,0.06,1.73,-9.6,1.02,390040.0,0.8
663.21,-0.13,0.01,0.03,1.73,-9.61,1.02,389627.0,0.8
663.32,-0.17,-0.01,0.02,1.72,-9.62,1.02,389660.0,0.8
663.43,-0.19,-0.02,0.01,1.71,-9.62,1.01,389913.0,0.8
663.53,-0.18,-0.0,-0.01,1.7,-9.61,1.01,389156.0,0.8
663.64,-0.17,0.0,-0.03,1.71,-9.6,1.02,389220.0,0.8
663.75,-0.15,-0.01,-0.05,1.7,-9.61,1.03,389201.0,0.8
663.85,-0.13,-0.01,-0.07,1.7,-9.61,1.04,389178.0,0.8
663.96,-0.11,-0.01,-0.08,1.69,-9.61,1.04,388628.0,0.8
664.07,-0.09,-0.03,-0.07,1.7,-9.61,1.03,389282.0,0.8
664.18,-0.09,-0.06,-0.04,1.71,-9.61,1.02,388768.0,0.8
664.28,-0.09,-0.07,-0.01,1.72,-9.61,1.01,389212.0,0.8
664.39,-0.11,-0.06,0.01,1.72,-9.61,1.01,388648.0,0.8
664.5,-0.15,-0.03,0.01,1.71,-9.62,1.03,389172.0,0.8
664.61,-0.18,-0.02,0.01,1.71,-9.62,1.05,388770.0,0.8
664.72,-0.16,-0.02,0.02,1.69,-9.63,1.05,388515.0,0.8
664.83,-0.12,-0.01,0.02,1.68,-9.62,1.04,388803.0,0.8
664.93,-0.1,0.01,0.02,1.68,-9.6,1.03,388522.0,0.8
665.04,-0.13,0.02,-0.0,1.7,-9.6,1.02,388002.0,0.8
665.15,-0.15,-0.0,-0.03,1.72,-9.59,1.02,388099.0,0.8
665.25,-0.14,-0.02,-0.04,1.73,-9.59,1.02,388218.0,0.8
665.36,-0.13,-0.03,-0.03,1.72,-9.59,1.02,387740.0,0.8
665.47,-0.14,-0.01,-0.02,1.71,-9.59,1.02,388361.0,0.8
665.58,-0.16,0.01,-0.02,1.7,-9.59,1.02,387806.0,0.8
665.68,-0.17,0.01,-0.01,1.7,-9.6,1.02,388000.0,0.8
665.79,-0.15,0.02,-0.01,1.7,-9.61,1.02,387618.0,0.8
665.9,-0.12,0.01,-0.02,1.7,-9.62,1.01,387961.0,0.8
666.01,-0.1,-0.01,-0.01,1.69,-9.62,0.99,387174.0,0.8
666.11,-0.1,-0.03,0.03,1.69,-9.62,0.99,387453.0,0.8
666.22,-0.13,-0.05,0.04,1.69,-9.62,1.0,386988.0,0.8
666.33,-0.16,-0.06,0.02,1.7,-9.6,1.01,387300.0,0.8
666.44,-0.16,-0.06,-0.0,1.7,-9.59,1.02,386630.0,0.8
666.54,-0.12,-0.06,-0.01,1.71,-9.58,1.02,387060.0,0.8
666.65,-0.08,-0.03,-0.02,1.71,-9.58,1.01,386771.0,0.8
666.76,-0.06,0.01,-0.02,1.71,-9.58,1.01,386762.0,0.8
666.87,-0.08,0.02,-0.01,1.71,-9.59,1.02,387111.0,0.8
666.97,-0.12,0.0,0.0,1.71,-9.6,1.03,386882.0,0.8
667.08,-0.14,-0.02,0.01,1.7,-9.59,1.05,386408.0,0.8
667.19,-0.14,-0.05,-0.01,1.7,-9.6,1.06,386351.0,0.8
667.3,-0.14,-0.07,-0.03,1.7,-9.6,1.06,386479.0,0.8
667.41,-0.16,-0.05,-0.05,1.69,-9.61,1.06,385936.0,0.8
667.51,-0.17,-0.01,-0.08,1.7,-9.62,1.05,386427.0,0.8
667.62,-0.18,0.03,-0.06,1.7,-9.62,1.04,386130.0,0.8
667.73,-0.19,0.02,-0.04,1.7,-9.62,1.02,386223.0,0.8
667.84,-0.21,-0.01,-0.03,1.69,-9.61,1.02,385935.0,0.8
667.94,-0.23,-0.03,0.0,1.69,-9.61,1.03,386404.0,0.8
668.05,-0.22,-0.02,0.03,1.69,-9.62,1.02,385967.0,0.8
668.16,-0.17,-0.0,0.05,1.7,-9.64,1.0,386184.0,0.8
668.27,-0.14,-0.0,0.03,1.71,-9.65,0.99,385736.0,0.8
668.37,-0.15,-0.02,0.03,1.71,-9.63,0.97,385949.0,0.8
668.48,-0.18,-0.06,0.04,1.72,-9.61,0.98,385441.0,0.8
668.59,-0.17,-0.09,0.04,1.73,-9.6,1.01,385589.0,0.8
668.7,-0.16,-0.11,0.04,1.73,-9.6,1.03,385425.0,0.8
668.8,-0.17,-0.1,0.03,1.73,-9.59,1.04,385281.0,0.8
668.91,-0.19,-0.08,0.02,1.73,-9.59,1.04,385114.0,0.8
669.02,-0.21,-0.04,-0.01,1.71,-9.59,1.03,385491.0,0.8
669.13,-0.22,-0.0,-0.01,1.69,-9.59,1.01,385227.0,0.8
669.23,-0.2,0.01,0.01,1.69,-9.59,1.0,385209.0,0.8
669.34,-0.17,0.01,0.03,1.7,-9.6,1.0,385340.0,0.8
669.45,-0.15,0.01,0.03,1.72,-9.6,1.0,384975.0,0.8
669.56,-0.14,0.02,0.01,1.72,-9.61,1.0,384755.0,0.8
669.66,-0.15,0.05,-0.03,1.71,-9.6,0.99,384745.0,0.8
669.77,-0.15,0.07,-0.06,1.72,-9.59,0.98,384714.0,0.8
669.88,-0.13,0.05,-0.08,1.72,-9.58,0.97,384147.0,0.8
669.98,-0.12,0.02,-0.07,1.73,-9.58,0.98,384672.0,0.8
670.09,-0.12,0.01,-0.05,1.74,-9.59,0.99,384129.0,0.8
670.2,-0.12,-0.0,-0.03,1.75,-9.6,1.0,384543.0,0.8
670.31,-0.12,-0.03,-0.01,1.76,-9.61,1.01,383996.0,0.8
670.41,-0.13,-0.03,-0.0,1.76,-9.61,1.02,384710.0,0.8
670.52,-0.16,-0.01,0.02,1.76,-9.6,1.02,384078.0,0.8
670.63,-0.19,-0.0,0.03,1.74,-9.59,1.02,384396.0,0.8
670.74,-0.21,0.02,0.02,1.72,-9.58,1.01,384199.0,0.8
670.84,-0.19,0.03,0.01,1.71,-9.58,1.0,384098.0,0.8
670.95,-0.17,0.03,0.01,1.71,-9.58,0.99,383295.0,0.8
671.06,-0.15,0.01,0.02,1.71,-9.59,1.0,383679.0,0.8
671.17,-0.12,-0.02,0.03,1.71,-9.61,1.01,383286.0,0.8
671.27,-0.1,-0.03,0.03,1.71,-9.62,1.02,383347.0,0.8
671.38,-0.11,-0.03,0.04,1.72,-9.62,1.01,383816.0,0.8
671.49,-0.11,-0.03,0.05,1.72,-9.62,1.01,383657.0,0.8
671.6,-0.12,-0.0,0.04,1.71,-9.6,1.01,383598.0,0.8
671.71,-0.12,0.02,0.03,1.69,-9.59,1.02,383406.0,0.8
671.81,-0.14,0.04,0.01,1.68,-9.59,1.03,383276.0,0.8
671.92,-0.14,0.07,-0.03,1.67,-9.6,1.03,383124.0,0.8
672.03,-0.13,0.07,-0.06,1.68,-9.62,1.04,383320.0,0.8
672.14,-0.11,0.05,-0.07,1.69,-9.63,1.05,382953.0,0.8
672.24,-0.09,0.0,-0.06,1.69,-9.63,1.04,382853.0,0.8
672.35,-0.1,-0.03,-0.06,1.7,-9.62,1.03,382591.0,0.8
672.46,-0.12,-0.05,-0.06,1.71,-9.62,1.02,382690.0,0.8
672.57,-0.15,-0.05,-0.03,1.7,-9.62,1.01,382131.0,0.8
672.67,-0.16,-0.03,0.01,1.69,-9.62,1.0,383078.0,0.8
672.78,-0.16,-0.01,0.02,1.68,-9.62,1.01,382680.0,0.8
672.89,-0.14,0.02,-0.01,1.68,-9.62,1.01,382758.0,0.8
673.0,-0.14,0.02,-0.02,1.69,-9.61,1.01,381937.0,0.8
673.11,-0.13,0.01,-0.02,1.71,-9.59,1.01,383094.0,0.8
673.21,-0.1,-0.01,-0.01,1.71,-9.58,1.02,381768.0,0.8
673.32,-0.09,-0.01,-0.0,1.7,-9.57,1.03,382443.0,0.8
673.43,-0.08,-0.01,-0.01,1.69,-9.56,1.03,381880.0,0.8
673.54,-0.08,-0.01,-0.03,1.7,-9.56,1.02,382288.0,0.8
673.65,-0.09,-0.02,-0.06,1.71,-9.58,1.01,381086.0,0.8
673.75,-0.13,-0.03,-0.05,1.72,-9.6,1.01,382600.0,0.8
673.86,-0.16,-0.03,-0.03,1.73,-9.62,1.0,381077.0,0.8
673.97,-0.15,-0.0,-0.01,1.72,-9.63,0.98,382179.0,0.8
674.08,-0.13,0.03,-0.01,1.72,-9.64,0.97,381351.0,0.8
674.18,-0.11,0.06,-0.03,1.71,-9.64,0.96,382481.0,0.8
674.29,-0.1,0.07,-0.06,1.71,-9.65,0.97,380663.0,0.8
674.4,-0.1,0.05,-0.07,1.72,-9.65,0.98,382279.0,0.8
674.51,-0.1,0.02,-0.07,1.72,-9.65,0.99,380956.0,0.8
674.61,-0.11,-0.01,-0.06,1.71,-9.64,0.99,380955.0,0.8
674.72,-0.14,-0.04,-0.03,1.69,-9.62,1.0,380204.0,0.8
674.83,-0.17,-0.06,-0.01,1.69,-9.6,1.02,382088.0,0.8
674.94,-0.19,-0.04,0.01,1.7,-9.57,1.02,380727.0,0.8
675.04,-0.19,-0.02,0.01,1.71,-9.56,1.02,380782.0,0.8
675.15,-0.18,0.0,0.0,1.71,-9.57,1.01,381984.0,0.8
675.26,-0.18,0.01,-0.01,1.71,-9.59,1.0,380185.0,0.8
675.37,-0.19,0.0,-0.02,1.71,-9.61,1.01,380344.0,0.8
675.48,-0.19,-0.01,-0.03,1.72,-9.62,1.02,380843.0,0.8
675.59,-0.16,-0.02,-0.03,1.7,-9.62,1.03,381089.0,0.8
675.69,-0.15,-0.03,-0.02,1.69,-9.62,1.03,379484.0,0.8
675.8,-0.15,-0.03,-0.01,1.7,-9.62,1.03,381561.0,0.8
675.91,-0.15,-0.03,-0.01,1.71,-9.61,1.03,379440.0,0.8
676.02,-0.15,-0.05,-0.02,1.72,-9.62,1.03,380402.0,0.8
676.12,-0.14,-0.08,-0.04,1.72,-9.62,1.02,379408.0,0.8
676.23,-0.11,-0.09,-0.06,1.7,-9.61,1.01,381159.0,0.8
676.34,-0.1,-0.07,-0.05,1.69,-9.6,1.0,379135.0,0.8
676.45,-0.11,-0.05,-0.03,1.7,-9.58,1.0,380803.0,0.8
676.56,-0.12,-0.02,-0.0,1.7,-9.58,1.0,380066.0,0.8
676.67,-0.13,-0.0,0.01,1.71,-9.59,1.0,380763.0,0.8
676.78,-0.18,0.02,0.01,1.71,-9.6,1.0,379491.0,0.8
676.89,-0.21,0.03,0.02,1.7,-9.6,0.99,379596.0,0.8
676.99,-0.21,0.03,0.03,1.7,-9.61,0.98,379213.0,0.8
677.1,-0.19,0.02,0.04,1.7,-9.61,0.98,379204.0,0.8
677.21,-0.17,-0.0,0.03,1.7,-9.62,0.99,380047.0,0.8
677.32,-0.18,-0.01,-0.01,1.69,-9.61,1.01,380103.0,0.8
677.43,-0.2,-0.03,-0.04,1.69,-9.6,1.01,378726.0,0.8
677.54,-0.21,-0.06,-0.04,1.7,-9.6,1.0,379195.0,0.8
677.64,-0.19,-0.09,-0.02,1.71,-9.6,0.98,379358.0,0.8
677.75,-0.17,-0.1,0.01,1.71,-9.6,0.97,378407.0,0.8
677.86,-0.14,-0.09,0.02,1.71,-9.6,0.99,377708.0,0.8
677.97,-0.12,-0.08,0.01,1.72,-9.6,1.0,379361.0,0.8
678.08,-0.12,-0.07,-0.0,1.74,-9.6,1.0,378732.0,0.8
678.18,-0.12,-0.06,0.01,1.74,-9.61,1.0,377594.0,0.8
678.29,-0.13,-0.05,0.02,1.73,-9.61,1.0,379580.0,0.8
678.4,-0.14,-0.04,0.0,1.73,-9.62,1.0,376892.0,0.8
678.51,-0.14,-0.02,-0.03,1.73,-9.61,1.01,378256.0,0.8
678.62,-0.13,-0.01,-0.06,1.73,-9.58,1.0,377326.0,0.8
678.72,-0.12,-0.02,-0.07,1.73,-9.57,1.0,379601.0,0.8
678.83,-0.12,-0.03,-0.06,1.71,-9.55,1.0,377227.0,0.8
678.94,-0.13,-0.03,-0.06,1.7,-9.55,1.01,379603.0,0.8
679.05,-0.14,-0.02,-0.06,1.7,-9.56,1.03,378530.0,0.8
679.15,-0.16,-0.01,-0.04,1.7,-9.59,1.05,379930.0,0.8
679.26,-0.15,-0.01,-0.01,1.7,-9.61,1.05,377087.0,0.8
679.37,-0.13,0.02,0.04,1.69,-9.63,1.05,379616.0,0.8
679.48,-0.12,0.08,0.14,1.68,-9.66,1.03,375313.0,0.8
679.58,-0.02,0.11,0.42,1.66,-9.68,1.01,370083.0,0.8
679.69,0.25,0.13,1.23,1.67,-9.68,1.0,411879.0,0.8
679.8,0.56,0.12,2.23,1.66,-9.67,1.02,1494943.0,0.8
679.91,0.7,0.08,2.69,1.63,-9.66,1.04,2863370.0,0.8
680.02,0.59,0.02,2.78,1.56,-9.57,1.05,3614262.0,0.8
680.13,0.27,-0.08,2.63,1.47,-9.4,1.05,4170692.0,0.8
680.23,-0.01,-0.13,2.09,1.41,-9.32,1.05,4937838.0,0.8
680.34,-0.14,-0.11,1.33,1.39,-9.38,1.06,5382044.0,0.8
680.45,-0.21,-0.09,0.63,1.39,-9.46,1.07,5800670.0,0.8
680.56,-0.22,-0.05,0.14,1.4,-9.54,1.08,5840694.0,0.8
680.67,-0.2,-0.0,-0.09,1.43,-9.6,1.08,5846517.0,0.8
680.78,-0.17,0.02,-0.13,1.45,-9.64,1.08,5851387.0,0.8
680.89,-0.13,0.01,-0.12,1.47,-9.65,1.08,5855595.0,0.8
680.99,-0.1,-0.01,-0.09,1.49,-9.65,1.07,5859344.0,0.8
681.1,-0.1,-0.03,-0.06,1.5,-9.64,1.07,5866055.0,0.8
681.21,-0.13,-0.03,-0.01,1.49,-9.65,1.07,5869064.0,0.8
681.32,-0.15,-0.04,0.02,1.48,-9.65,1.07,5871796.0,0.8
681.42,-0.14,-0.06,0.04,1.47,-9.65,1.09,5874236.0,0.8
681.53,-0.12,-0.05,0.06,1.46,-9.65,1.1,5876523.0,0.8
681.64,-0.09,-0.03,0.06,1.45,-9.66,1.11,5878634.0,0.8
681.75,-0.08,-0.0,0.02,1.46,-9.67,1.12,5882452.0,0.8
681.86,-0.11,0.0,-0.01,1.45,-9.67,1.12,5884211.0,0.8
681.97,-0.13,0.0,-0.01,1.45,-9.67,1.1,5885813.0,0.8
682.08,-0.14,0.02,0.02,1.44,-9.66,1.08,5887347.0,0.8
682.18,-0.13,0.04,0.03,1.44,-9.65,1.07,5888806.0,0.8
682.29,-0.14,0.05,0.03,1.42,-9.65,1.07,5890219.0,0.8
682.4,-0.14,0.03,0.0,1.42,-9.65,1.08,5892961.0,0.8
682.51,-0.13,-0.01,-0.02,1.42,-9.64,1.1,5894292.0,0.8
682.61,-0.11,-0.03,-0.01,1.43,-9.63,1.1,5895522.0,0.8
682.72,-0.1,-0.04,0.01,1.43,-9.63,1.1,5896689.0,0.8
682.83,-0.09,-0.07,0.01,1.44,-9.63,1.1,5897861.0,0.8
682.94,-0.09,-0.1,-0.02,1.44,-9.63,1.11,5900021.0,0.8
683.05,-0.12,-0.09,-0.04,1.46,-9.63,1.11,5901066.0,0.8
683.16,-0.15,-0.06,-0.05,1.47,-9.64,1.1,5902088.0,0.8
683.26,-0.17,-0.02,-0.04,1.48,-9.65,1.09,5903051.0,0.8
683.37,-0.19,-0.01,-0.04,1.47,-9.66,1.09,5903981.0,0.8
683.48,-0.19,0.0,-0.04,1.46,-9.67,1.09,5904919.0,0.8
683.59,-0.15,0.04,-0.02,1.44,-9.66,1.1,5906619.0,0.8
683.7,-0.12,0.07,-0.01,1.43,-9.65,1.09,5907447.0,0.8
683.81,-0.09,0.07,-0.01,1.41,-9.65,1.08,5908284.0,0.8
683.91,-0.07,0.06,-0.01,1.41,-9.64,1.07,5909079.0,0.8
684.02,-0.07,0.04,-0.02,1.42,-9.64,1.06,5909861.0,0.8
684.13,-0.08,0.01,-0.02,1.45,-9.64,1.06,5910669.0,0.8
684.23,-0.09,-0.01,-0.03,1.47,-9.64,1.07,5912228.0,0.8
684.34,-0.11,-0.03,-0.01,1.47,-9.65,1.07,5912960.0,0.8
684.45,-0.12,-0.07,0.02,1.48,-9.65,1.07,5913585.0,0.8
684.56,-0.12,-0.09,0.05,1.47,-9.64,1.09,5914264.0,0.8
684.67,-0.11,-0.07,0.08,1.47,-9.63,1.09,5914889.0,0.8
684.78,-0.11,-0.03,0.1,1.46,-9.63,1.09,5915489.0,0.8
684.89,-0.13,-0.01,0.11,1.45,-9.63,1.09,5916691.0,0.8
684.99,-0.14,-0.01,0.09,1.45,-9.65,1.09,5917296.0,0.8
685.1,-0.14,-0.02,0.03,1.45,-9.65,1.08,5917901.0,0.8
685.21,-0.12,-0.03,-0.01,1.46,-9.64,1.08,5918470.0,0.8
685.32,-0.1,-0.06,-0.0,1.47,-9.64,1.1,5919046.0,0.8
685.43,-0.1,-0.06,0.03,1.47,-9.65,1.12,5919572.0,0.8
685.54,-0.11,-0.03,0.05,1.46,-9.66,1.12,5920628.0,0.8
685.64,-0.13,0.02,0.03,1.45,-9.66,1.11,5921138.0,0.8
685.75,-0.16,0.05,-0.01,1.45,-9.67,1.09,5921687.0,0.8
685.86,-0.19,0.04,-0.02,1.44,-9.68,1.07,5922194.0,0.8
685.97,-0.2,0.01,-0.0,1.44,-9.68,1.06,5922660.0,0.8
686.08,-0.2,-0.01,0.0,1.45,-9.67,1.06,5923140.0,0.8
686.18,-0.2,-0.03,-0.02,1.45,-9.67,1.07,5924229.0,0.8
686.29,-0.19,-0.05,-0.04,1.44,-9.67,1.09,5924664.0,0.8
686.4,-0.16,-0.07,-0.05,1.43,-9.67,1.11,5925124.0,0.8
686.51,-0.12,-0.06,-0.05,1.43,-9.66,1.11,5925571.0,0.8
686.62,-0.11,-0.02,-0.03,1.44,-9.65,1.09,5925998.0,0.8
686.73,-0.12,0.03,-0.02,1.44,-9.63,1.08,5926446.0,0.8
686.84,-0.15,0.06,-0.02,1.45,-9.63,1.07,5927337.0,0.8
686.94,-0.18,0.05,-0.03,1.45,-9.64,1.07,5927733.0,0.8
687.05,-0.19,0.02,-0.05,1.46,-9.64,1.07,5928176.0,0.8
687.16,-0.2,-0.02,-0.07,1.46,-9.63,1.06,5928620.0,0.8
687.27,-0.2,-0.04,-0.09,1.45,-9.62,1.06,5929015.0,0.8
687.37,-0.19,-0.03,-0.09,1.46,-9.62,1.07,5929829.0,0.8
687.48,-0.18,-0.02,-0.08,1.45,-9.62,1.07,5930191.0,0.8
687.59,-0.19,-0.0,-0.04,1.45,-9.62,1.08,5930548.0,0.8
687.7,-0.19,-0.0,0.0,1.44,-9.64,1.09,5930877.0,0.8
687.81,-0.18,-0.01,0.01,1.43,-9.65,1.09,5931190.0,0.8
687.92,-0.18,-0.03,-0.01,1.43,-9.66,1.09,5931542.0,0.8
688.02,-0.18,-0.03,-0.04,1.44,-9.65,1.09,5932357.0,0.8
688.13,-0.18,-0.02,-0.06,1.45,-9.65,1.1,5932737.0,0.8
688.24,-0.18,0.0,-0.06,1.45,-9.64,1.1,5933071.0,0.8
688.35,-0.17,0.01,-0.06,1.46,-9.63,1.09,5933488.0,0.8
688.46,-0.16,0.02,-0.05,1.46,-9.63,1.07,5933927.0,0.8
688.57,-0.17,0.04,-0.04,1.46,-9.63,1.07,5934383.0,0.8
688.67,-0.18,0.02,-0.04,1.46,-9.64,1.08,5935257.0,0.8
688.78,-0.18,-0.01,-0.05,1.47,-9.65,1.09,5935618.0,0.8
688.89,-0.2,-0.04,-0.04,1.48,-9.65,1.1,5936013.0,0.8
689.0,-0.21,-0.04,-0.02,1.48,-9.65,1.09,5936402.0,0.8
689.1,-0.18,-0.05,0.01,1.46,-9.65,1.09,5936747.0,0.8
689.22,-0.15,-0.07,0.03,1.43,-9.65,1.1,5937077.0,0.8
689.32,-0.12,-0.08,0.03,1.42,-9.65,1.09,5937670.0,0.8
689.43,-0.1,-0.08,0.02,1.42,-9.65,1.09,5938001.0,0.8
689.54,-0.09,-0.06,-0.02,1.43,-9.65,1.08,5938247.0,0.8
689.65,-0.09,-0.05,-0.07,1.44,-9.64,1.07,5938503.0,0.8
689.76,-0.11,-0.03,-0.09,1.45,-9.64,1.07,5938798.0,0.8
689.87,-0.13,0.02,-0.09,1.46,-9.64,1.08,5939078.0,0.8
689.97,-0.14,0.05,-0.08,1.47,-9.64,1.1,5939659.0,0.8
690.08,-0.15,0.06,-0.06,1.47,-9.64,1.11,5939919.0,0.8
690.19,-0.18,0.03,-0.04,1.46,-9.64,1.1,5940164.0,0.8
690.3,-0.17,-0.02,-0.01,1.46,-9.64,1.09,5940409.0,0.8
690.41,-0.15,-0.04,0.01,1.45,-9.66,1.09,5940701.0,0.8
690.52,-0.14,-0.03,0.02,1.45,-9.67,1.09,5941301.0,0.8
690.62,-0.14,0.0,0.01,1.45,-9.68,1.09,5941554.0,0.8
690.73,-0.14,0.02,0.0,1.46,-9.68,1.09,5941796.0,0.8
690.84,-0.15,-0.01,-0.0,1.45,-9.67,1.09,5942069.0,0.8
690.95,-0.18,-0.03,-0.01,1.44,-9.66,1.11,5942333.0,0.8
691.05,-0.21,-0.01,-0.02,1.43,-9.66,1.13,5942619.0,0.8
691.16,-0.2,0.02,-0.0,1.42,-9.66,1.13,5943146.0,0.8
691.27,-0.17,0.01,0.03,1.42,-9.65,1.11,5943382.0,0.8
691.38,-0.14,-0.02,0.05,1.42,-9.64,1.1,5943614.0,0.8
691.49,-0.13,-0.03,0.07,1.43,-9.63,1.09,5943855.0,0.8
691.59,-0.13,-0.04,0.07,1.44,-9.63,1.08,5944093.0,0.8
691.7,-0.14,-0.05,0.04,1.45,-9.64,1.08,5944331.0,0.8
753.96,-0.16,-0.07,-0.04,1.42,-9.63,1.12,5987255.0,0.7
754.07,-0.16,-0.08,-0.04,1.42,-9.65,1.1,5987379.0,0.7
754.17,-0.16,-0.07,-0.03,1.43,-9.66,1.09,5987611.0,0.7
754.28,-0.18,-0.04,-0.01,1.43,-9.66,1.08,5987708.0,0.7
754.39,-0.21,-0.03,0.01,1.43,-9.65,1.07,5987790.0,0.7
754.5,-0.22,-0.03,0.03,1.43,-9.65,1.07,5987810.0,0.7
754.61,-0.21,-0.05,0.03,1.43,-9.65,1.08,5987886.0,0.7
754.72,-0.2,-0.04,0.0,1.42,-9.65,1.09,5988025.0,0.7
754.82,-0.16,-0.02,-0.02,1.43,-9.66,1.08,5988115.0,0.7
754.93,-0.12,-0.0,-0.04,1.44,-9.66,1.08,5988158.0,0.7
755.04,-0.07,0.01,-0.03,1.46,-9.66,1.08,5988215.0,0.7
755.14,-0.06,0.0,-0.02,1.48,-9.65,1.09,5988300.0,0.7
755.25,-0.08,-0.02,0.0,1.47,-9.64,1.11,5988412.0,0.7
755.36,-0.1,-0.06,0.01,1.46,-9.64,1.13,5988744.0,0.7
755.47,-0.12,-0.08,-0.01,1.44,-9.64,1.14,5988868.0,0.7
755.58,-0.12,-0.08,-0.04,1.43,-9.65,1.14,5988930.0,0.7
755.69,-0.11,-0.06,-0.05,1.42,-9.66,1.14,5989095.0,0.7
755.79,-0.12,-0.06,-0.03,1.43,-9.66,1.12,5989245.0,0.7
755.9,-0.14,-0.06,-0.03,1.43,-9.66,1.1,5989437.0,0.7
756.01,-0.18,-0.06,-0.05,1.44,-9.66,1.08,5989740.0,0.7
756.12,-0.22,-0.04,-0.07,1.45,-9.65,1.06,5989842.0,0.7
756.23,-0.23,-0.01,-0.07,1.46,-9.63,1.06,5989972.0,0.7
756.34,-0.22,0.01,-0.08,1.46,-9.62,1.05,5990128.0,0.7
756.45,-0.21,-0.0,-0.06,1.45,-9.61,1.05,5990361.0,0.7
756.56,-0.2,-0.05,-0.03,1.45,-9.62,1.06,5990682.0,0.7
756.66,-0.19,-0.08,-0.01,1.45,-9.64,1.08,5991254.0,0.7
756.77,-0.17,-0.06,-0.02,1.46,-9.66,1.07,5991438.0,0.7
756.88,-0.15,-0.04,-0.03,1.46,-9.66,1.05,5991576.0,0.7
756.99,-0.12,-0.05,-0.03,1.46,-9.66,1.05,5991682.0,0.7
757.1,-0.1,-0.08,-0.02,1.44,-9.65,1.05,5991766.0,0.7
757.21,-0.11,-0.1,-0.02,1.44,-9.64,1.06,5991748.0,0.7
757.32,-0.14,-0.07,-0.03,1.44,-9.64,1.06,5991820.0,0.7
757.42,-0.14,-0.02,-0.05,1.45,-9.64,1.07,5991871.0,0.7
757.54,-0.13,0.01,-0.02,1.44,-9.65,1.06,5991991.0,0.7
757.65,-0.12,-0.02,0.02,1.43,-9.65,1.06,5992202.0,0.7
757.76,-0.12,-0.05,0.04,1.42,-9.66,1.07,5992452.0,0.7
757.86,-0.14,-0.05,0.04,1.42,-9.66,1.07,5992757.0,0.7
757.97,-0.16,-0.05,0.03,1.43,-9.65,1.08,5992826.0,0.7
758.08,-0.17,-0.04,0.0,1.45,-9.63,1.07,5992892.0,0.7
758.19,-0.16,-0.01,-0.03,1.46,-9.62,1.06,5992980.0,0.7
758.3,-0.13,0.01,-0.05,1.47,-9.62,1.05,5992991.0,0.7
758.41,-0.1,0.02,-0.06,1.47,-9.63,1.06,5992950.0,0.7
758.52,-0.08,0.02,-0.06,1.45,-9.64,1.07,5992875.0,0.7
758.62,-0.08,0.01,-0.07,1.43,-9.65,1.08,5992916.0,0.7
758.73,-0.07,0.02,-0.09,1.41,-9.65,1.11,5992971.0,0.7
758.84,-0.08,0.06,-0.1,1.4,-9.65,1.13,5993094.0,0.7
758.95,-0.09,0.09,-0.1,1.41,-9.65,1.12,5993252.0,0.7
759.06,-0.12,0.09,-0.09,1.42,-9.65,1.11,5993533.0,0.7
759.17,-0.16,0.06,-0.07,1.44,-9.64,1.09,5993660.0,0.7
759.28,-0.19,0.04,-0.04,1.45,-9.63,1.07,5993753.0,0.7
759.38,-0.19,0.02,0.01,1.46,-9.64,1.04,5993793.0,0.7
759.49,-0.19,0.02,0.03,1.46,-9.66,1.03,5993882.0,0.7
759.6,-0.18,0.02,0.01,1.46,-9.67,1.03,5994040.0,0.7
759.7,-0.18,0.01,-0.01,1.45,-9.66,1.04,5994400.0,0.7
759.81,-0.19,-0.0,-0.0,1.45,-9.63,1.04,5994482.0,0.7
759.92,-0.18,0.02,0.02,1.45,-9.6,1.04,5994529.0,0.7
760.02,-0.16,0.03,0.04,1.44,-9.59,1.06,5994597.0,0.7
760.13,-0.15,0.02,0.04,1.44,-9.6,1.07,5994649.0,0.7
760.24,-0.14,-0.01,0.02,1.44,-9.61,1.08,5994697.0,0.7
760.35,-0.14,-0.04,-0.01,1.45,-9.63,1.08,5994814.0,0.7
760.45,-0.15,-0.03,-0.02,1.45,-9.64,1.08,5994957.0,0.7
760.57,-0.15,0.0,-0.04,1.45,-9.65,1.08,5995056.0,0.7
760.68,-0.14,0.01,-0.05,1.44,-9.65,1.07,5995135.0,0.7
760.79,-0.13,-0.0,-0.05,1.44,-9.65,1.07,5995179.0,0.7
760.89,-0.13,-0.01,-0.04,1.43,-9.66,1.08,5995246.0,0.7
761.0,-0.14,-0.01,-0.03,1.43,-9.67,1.1,5995431.0,0.7
761.11,-0.15,-0.01,-0.03,1.43,-9.67,1.11,5995526.0,0.7
761.22,-0.15,0.01,-0.05,1.43,-9.67,1.1,5995586.0,0.7
761.32,-0.15,0.04,-0.08,1.43,-9.66,1.08,5995624.0,0.7
761.43,-0.15,0.05,-0.08,1.43,-9.65,1.06,5995628.0,0.7
761.54,-0.15,0.03,-0.06,1.44,-9.64,1.05,5995618.0,0.7
761.64,-0.15,-0.01,-0.03,1.45,-9.65,1.05,5995472.0,0.7
761.75,-0.15,-0.03,0.02,1.46,-9.65,1.06,5995402.0,0.7
761.86,-0.16,-0.03,0.06,1.48,-9.64,1.06,5995345.0,0.7
761.96,-0.17,-0.04,0.07,1.48,-9.63,1.07,5995314.0,0.7
762.07,-0.17,-0.04,0.03,1.47,-9.64,1.07,5995339.0,0.7
762.18,-0.15,-0.03,-0.0,1.45,-9.66,1.08,5995441.0,0.7
762.28,-0.12,-0.01,-0.01,1.44,-9.67,1.1,5995535.0,0.7
762.39,-0.1,-0.0,-0.01,1.44,-9.67,1.11,5995636.0,0.7
762.5,-0.1,-0.01,-0.01,1.44,-9.66,1.13,5995710.0,0.7
762.6,-0.12,-0.04,-0.02,1.44,-9.65,1.13,5995771.0,0.7
762.71,-0.15,-0.05,-0.02,1.44,-9.64,1.11,5995853.0,0.7
762.82,-0.16,-0.04,-0.02,1.45,-9.63,1.11,5995948.0,0.7
762.92,-0.14,-0.02,-0.02,1.47,-9.63,1.11,5996042.0,0.7
763.03,-0.12,-0.02,-0.02,1.47,-9.62,1.11,5996196.0,0.7
763.14,-0.12,-0.0,-0.03,1.46,-9.63,1.1,5996311.0,0.7
763.24,-0.12,0.03,-0.01,1.45,-9.64,1.09,5996377.0,0.7
763.35,-0.13,0.04,0.01,1.44,-9.66,1.08,5996511.0,0.7
763.46,-0.15,0.03,0.01,1.44,-9.66,1.08,5996717.0,0.7
763.56,-0.17,0.02,-0.01,1.46,-9.66,1.07,5996971.0,0.7
763.67,-0.18,0.02,-0.01,1.47,-9.65,1.07,5997223.0,0.7
763.78,-0.19,0.01,0.0,1.48,-9.64,1.07,5997691.0,0.7
763.89,-0.2,0.0,0.01,1.47,-9.64,1.07,5997964.0,0.7
763.99,-0.21,0.0,0.01,1.46,-9.64,1.09,5998203.0,0.7
764.1,-0.22,0.0,0.03,1.45,-9.64,1.11,5998436.0,0.7
764.21,-0.2,-0.0,0.03,1.45,-9.65,1.13,5998645.0,0.7
764.31,-0.16,-0.02,-0.0,1.46,-9.66,1.13,5998797.0,0.7
764.42,-0.12,-0.04,-0.04,1.46,-9.67,1.12,5999171.0,0.7
764.53,-0.1,-0.06,-0.04,1.46,-9.67,1.1,5999320.0,0.7
764.64,-0.11,-0.04,-0.03,1.45,-9.67,1.07,5999476.0,0.7
764.74,-0.13,0.0,-0.04,1.45,-9.66,1.04,5999605.0,0.7
764.85,-0.16,0.02,-0.07,1.45,-9.65,1.04,5999754.0,0.7
764.96,-0.18,0.01,-0.1,1.45,-9.64,1.04,6000031.0,0.7
765.06,-0.18,-0.0,-0.11,1.45,-9.63,1.05,6000105.0,0.7
765.17,-0.16,-0.01,-0.09,1.44,-9.62,1.08,6000117.0,0.7
765.28,-0.14,-0.0,-0.05,1.43,-9.62,1.1,6000238.0,0.7
765.39,-0.14,0.02,-0.01,1.43,-9.63,1.12,6000243.0,0.7
765.49,-0.15,0.04,0.0,1.43,-9.64,1.12,6000358.0,0.7
765.6,-0.15,0.04,-0.02,1.44,-9.64,1.11,6000612.0,0.7
765.71,-0.15,0.01,-0.06,1.45,-9.63,1.1,6000999.0,0.7
765.81,-0.14,-0.0,-0.08,1.45,-9.63,1.09,6001183.0,0.7
765.92,-0.14,-0.0,-0.06,1.45,-9.63,1.08,6001297.0,0.7
766.03,-0.15,-0.01,-0.02,1.44,-9.64,1.07,6001316.0,0.7
766.13,-0.17,-0.0,-0.0,1.44,-9.65,1.07,6001255.0,0.7
766.24,-0.17,0.01,0.0,1.44,-9.65,1.08,6001125.0,0.7
766.35,-0.15,0.03,0.0,1.45,-9.65,1.08,6000929.0,0.7
766.46,-0.15,0.04,-0.0,1.45,-9.65,1.08,6000690.0,0.7
766.56,-0.15,0.05,-0.01,1.46,-9.65,1.07,6000764.0,0.7
766.67,-0.14,0.03,-0.02,1.46,-9.65,1.05,6000824.0,0.7
766.78,-0.14,0.01,-0.02,1.46,-9.64,1.04,6001064.0,0.7
766.88,-0.15,-0.02,-0.01,1.47,-9.64,1.06,6001334.0,0.7
766.99,-0.15,-0.03,-0.02,1.48,-9.64,1.08,6001622.0,0.7
767.09,-0.13,-0.01,-0.04,1.48,-9.63,1.09,6001971.0,0.7
767.2,-0.12,0.02,-0.03,1.46,-9.63,1.09,6002231.0,0.7
767.31,-0.12,0.03,-0.02,1.45,-9.63,1.09,6002622.0,0.7
767.42,-0.12,0.04,-0.0,1.43,-9.64,1.09,6003051.0,0.7
767.52,-0.12,0.04,0.01,1.43,-9.64,1.08,6003398.0,0.7
767.64,-0.15,0.01,-0.0,1.43,-9.64,1.08,6003685.0,0.7
767.74,-0.18,-0.01,-0.02,1.44,-9.64,1.07,6004142.0,0.7
767.85,-0.2,-0.03,-0.03,1.44,-9.64,1.06,6004364.0,0.7
767.96,-0.18,-0.03,-0.0,1.43,-9.64,1.05,6004590.0,0.7
768.06,-0.15,-0.02,0.04,1.43,-9.66,1.05,6004755.0,0.7
768.17,-0.12,-0.0,0.06,1.44,-9.67,1.07,6004831.0,0.7
768.28,-0.12,0.02,0.05,1.46,-9.67,1.09,6004831.0,0.7
768.39,-0.14,0.02,0.02,1.47,-9.67,1.11,6004800.0,0.7
768.49,-0.16,0.01,0.02,1.47,-9.66,1.11,6004771.0,0.7
768.6,-0.19,0.01,0.03,1.48,-9.66,1.1,6004683.0,0.7
768.71,-0.21,0.01,0.03,1.5,-9.66,1.09,6004546.0,0.7
768.81,-0.22,-0.01,0.0,1.5,-9.66,1.1,6004402.0,0.7
768.92,-0.22,-0.01,0.0,1.47,-9.67,1.11,6004319.0,0.7
769.03,-0.2,0.0,0.01,1.45,-9.67,1.12,6004209.0,0.7
769.13,-0.17,0.0,0.0,1.43,-9.67,1.13,6003958.0,0.7
769.24,-0.15,-0.02,-0.0,1.42,-9.67,1.13,6003955.0,0.7
769.35,-0.14,-0.05,0.0,1.42,-9.66,1.12,6003934.0,0.7
769.45,-0.13,-0.06,-0.01,1.43,-9.66,1.11,6003972.0,0.7
769.56,-0.14,-0.05,-0.02,1.44,-9.66,1.09,6004022.0,0.7
769.67,-0.16,-0.05,-0.02,1.46,-9.65,1.09,6004050.0,0.7
769.78,-0.16,-0.04,0.0,1.47,-9.65,1.1,6004088.0,0.7
769.88,-0.17,-0.03,0.03,1.47,-9.65,1.12,6004180.0,0.7
769.99,-0.18,-0.01,0.06,1.47,-9.65,1.12,6004259.0,0.7
770.1,-0.19,0.01,0.08,1.45,-9.65,1.11,6004336.0,0.7
770.2,-0.2,0.01,0.05,1.44,-9.65,1.1,6004338.0,0.7
770.31,-0.2,-0.01,0.01,1.43,-9.65,1.1,6004285.0,0.7
770.42,-0.19,-0.03,0.01,1.43,-9.66,1.1,6004183.0,0.7
770.53,-0.18,-0.04,0.03,1.43,-9.65,1.11,6004105.0,0.7
770.63,-0.18,-0.05,0.0,1.42,-9.64,1.13,6004044.0,0.7
770.74,-0.18,-0.05,-0.02,1.42,-9.64,1.14,6003928.0,0.7
770.85,-0.16,-0.05,-0.02,1.42,-9.65,1.13,6003807.0,0.7
770.95,-0.14,-0.04,-0.02,1.43,-9.66,1.13,6003678.0,0.7
771.06,-0.13,-0.02,-0.03,1.42,-9.67,1.12,6003621.0,0.7
771.17,-0.13,-0.0,-0.05,1.42,-9.68,1.12,6003478.0,0.7
771.27,-0.13,-0.01,-0.07,1.42,-9.68,1.11,6003345.0,0.7
771.38,-0.15,-0.01,-0.06,1.43,-9.68,1.11,6003071.0,0.7
771.49,-0.17,-0.02,-0.04,1.44,-9.68,1.09,6002749.0,0.7
771.59,-0.17,-0.02,-0.01,1.45,-9.67,1.08,6002530.0,0.7
771.7,-0.15,-0.04,0.0,1.46,-9.66,1.08,6002245.0,0.7
771.81,-0.13,-0.06,-0.0,1.46,-9.66,1.09,6001671.0,0.7
771.92,-0.13,-0.06,-0.02,1.46,-9.67,1.1,6001574.0,0.7
772.02,-0.14,-0.04,-0.02,1.46,-9.67,1.08,6001573.0,0.7
772.13,-0.15,-0.02,-0.02,1.47,-9.66,1.05,6001637.0,0.7
772.24,-0.15,-0.02,-0.04,1.47,-9.65,1.04,6001812.0,0.7
772.34,-0.15,-0.02,-0.07,1.48,-9.64,1.05,6001978.0,0.7
772.45,-0.14,-0.04,-0.08,1.47,-9.64,1.08,6002198.0,0.7
772.56,-0.14,-0.04,-0.06,1.47,-9.63,1.11,6002224.0,0.7
772.67,-0.13,-0.04,-0.0,1.45,-9.62,1.14,6002323.0,0.7
772.78,-0.13,-0.04,0.03,1.44,-9.62,1.14,6002458.0,0.7
772.89,-0.13,-0.06,0.02,1.44,-9.63,1.14,6002661.0,0.7
773.0,-0.14,-0.07,-0.0,1.45,-9.64,1.14,6002831.0,0.7
773.1,-0.17,-0.09,-0.01,1.46,-9.65,1.12,6003077.0,0.7
773.21,-0.18,-0.1,-0.0,1.48,-9.66,1.11,6003151.0,0.7
773.32,-0.17,-0.09,0.02,1.48,-9.67,1.11,6003156.0,0.7
773.42,-0.16,-0.06,0.03,1.47,-9.68,1.11,6003052.0,0.7
773.53,-0.16,-0.06,0.04,1.46,-9.66,1.09,6002968.0,0.7
773.64,-0.16,-0.07,0.04,1.46,-9.64,1.07,6002925.0,0.7
773.75,-0.17,-0.05,0.03,1.46,-9.65,1.05,6002666.0,0.7
773.85,-0.18,-0.03,0.02,1.45,-9.66,1.05,6002594.0,0.7
773.96,-0.16,-0.01,0.01,1.45,-9.66,1.05,6002512.0,0.7
774.07,-0.14,0.01,0.0,1.45,-9.65,1.06,6002507.0,0.7
774.17,-0.14,0.02,0.01,1.45,-9.65,1.08,6002548.0,0.7
774.28,-0.13,0.05,-0.0,1.46,-9.66,1.09,6002648.0,0.7
774.39,-0.12,0.06,-0.03,1.46,-9.66,1.1,6002689.0,0.7
774.49,-0.13,0.05,-0.04,1.45,-9.66,1.1,6002603.0,0.7
774.6,-0.15,0.03,-0.04,1.44,-9.66,1.11,6002435.0,0.7
774.71,-0.15,0.02,-0.04,1.44,-9.66,1.11,6002127.0,0.7
774.81,-0.14,-0.01,-0.05,1.44,-9.67,1.11,6001936.0,0.7
774.92,-0.13,-0.04,-0.07,1.45,-9.67,1.09,6001875.0,0.7
775.03,-0.13,-0.06,-0.1,1.46,-9.66,1.08,6001826.0,0.7
775.13,-0.14,-0.05,-0.11,1.46,-9.66,1.08,6001856.0,0.7
775.24,-0.15,-0.03,-0.08,1.46,-9.66,1.08,6001676.0,0.7
775.34,-0.15,-0.02,-0.04,1.45,-9.66,1.09,6001525.0,0.7
775.45,-0.16,-0.0,-0.03,1.45,-9.66,1.1,6001327.0,0.7
775.56,-0.16,0.0,-0.04,1.44,-9.66,1.11,6001194.0,0.7
775.66,-0.17,0.01,-0.06,1.44,-9.65,1.11,6001230.0,0.7
775.77,-0.17,0.03,-0.05,1.46,-9.64,1.12,6001339.0,0.7
775.88,-0.16,0.03,-0.01,1.46,-9.63,1.12,6001330.0,0.7
775.99,-0.16,0.04,0.02,1.46,-9.63,1.11,6001353.0,0.7
776.09,-0.17,0.04,0.02,1.45,-9.63,1.09,6001472.0,0.7
776.2,-0.17,0.04,-0.01,1.44,-9.63,1.08,6001835.0,0.7
776.31,-0.15,0.02,-0.03,1.44,-9.64,1.08,6002235.0,0.7
776.41,-0.11,0.01,-0.03,1.43,-9.65,1.08,6002587.0,0.7
776.52,-0.09,0.02,-0.03,1.43,-9.66,1.07,6003160.0,0.7
776.63,-0.11,0.02,-0.04,1.43,-9.65,1.08,6003371.0,0.7
776.73,-0.14,-0.0,-0.05,1.44,-9.63,1.1,6003608.0,0.7
776.84,-0.15,-0.05,-0.06,1.44,-9.61,1.11,6003839.0,0.7
776.95,-0.14,-0.07,-0.04,1.44,-9.61,1.11,6003934.0,0.7
777.05,-0.12,-0.05,-0.02,1.44,-9.62,1.09,6003961.0,0.7
777.16,-0.13,-0.05,-0.02,1.45,-9.64,1.08,6003974.0,0.7
777.27,-0.16,-0.06,-0.03,1.46,-9.65,1.07,6003982.0,0.7
777.38,-0.17,-0.05,-0.02,1.46,-9.66,1.07,6004025.0,0.7
777.48,-0.17,-0.03,-0.01,1.45,-9.66,1.07,6004082.0,0.7
777.59,-0.16,-0.02,-0.01,1.43,-9.66,1.07,6004186.0,0.7
777.71,-0.16,-0.01,-0.04,1.4,-9.67,1.07,6004316.0,0.7
777.81,-0.17,-0.01,-0.05,1.39,-9.68,1.07,6004529.0,0.7
777.92,-0.2,-0.03,-0.03,1.39,-9.67,1.08,6004582.0,0.7
778.03,-0.2,-0.04,-0.01,1.41,-9.66,1.08,6004585.0,0.7
778.14,-0.19,-0.06,0.01,1.43,-9.66,1.1,6004585.0,0.7
778.24,-0.16,-0.07,0.02,1.45,-9.64,1.11,6004456.0,0.7
778.35,-0.13,-0.06,0.01,1.44,-9.64,1.11,6004220.0,0.7
778.46,-0.1,-0.03,-0.0,1.43,-9.64,1.11,6004124.0,0.7
778.57,-0.1,-0.01,0.0,1.42,-9.65,1.09,6004338.0,0.7
778.68,-0.11,0.02,0.01,1.41,-9.65,1.09,6004552.0,0.7
778.79,-0.12,0.03,0.01,1.41,-9.65,1.08,6004700.0,0.7
778.89,-0.11,0.0,0.01,1.43,-9.65,1.08,6004825.0,0.7
779.0,-0.1,-0.04,0.02,1.44,-9.65,1.07,6004875.0,0.7
779.11,-0.09,-0.05,0.01,1.45,-9.65,1.06,6004905.0,0.7
779.22,-0.09,-0.03,-0.01,1.45,-9.65,1.06,6004866.0,0.7
779.32,-0.08,0.01,-0.02,1.46,-9.65,1.07,6004853.0,0.7
779.43,-0.1,0.05,-0.04,1.47,-9.64,1.08,6004774.0,0.7
779.54,-0.12,0.06,-0.06,1.48,-9.63,1.1,6004703.0,0.7
779.65,-0.14,0.04,-0.08,1.48,-9.63,1.1,6004586.0,0.7
779.76,-0.14,0.01,-0.07,1.46,-9.64,1.1,6004191.0,0.7
779.86,-0.14,-0.01,-0.04,1.44,-9.65,1.09,6004001.0,0.7
779.97,-0.12,-0.03,-0.02,1.44,-9.65,1.09,6003767.0,0.7
780.08,-0.13,-0.04,-0.02,1.45,-9.65,1.1,6003525.0,0.7
780.19,-0.17,-0.02,-0.04,1.47,-9.64,1.11,6003368.0,0.7
780.29,-0.18,-0.0,-0.06,1.47,-9.62,1.11,6003271.0,0.7
780.4,-0.18,-0.01,-0.06,1.47,-9.61,1.11,6003323.0,0.7
780.51,-0.16,-0.05,-0.02,1.46,-9.61,1.1,6003269.0,0.7
780.61,-0.15,-0.1,-0.0,1.45,-9.61,1.09,6003161.0,0.7
780.72,-0.16,-0.11,0.01,1.44,-9.62,1.09,6003035.0,0.7
780.83,-0.17,-0.08,0.01,1.44,-9.62,1.1,6002984.0,0.7
780.94,-0.17,-0.06,0.0,1.44,-9.62,1.11,6003010.0,0.7
781.05,-0.15,-0.05,-0.01,1.44,-9.62,1.11,6003046.0,0.7
781.15,-0.13,-0.04,-0.02,1.43,-9.63,1.11,6003075.0,0.7
781.26,-0.13,-0.02,-0.04,1.44,-9.64,1.11,6003005.0,0.7
781.37,-0.14,0.01,-0.06,1.45,-9.64,1.11,6002875.0,0.7
781.48,-0.14,0.03,-0.07,1.45,-9.63,1.12,6002793.0,0.7
781.58,-0.15,0.02,-0.07,1.45,-9.63,1.11,6002657.0,0.7
781.69,-0.17,0.0,-0.06,1.44,-9.63,1.09,6002447.0,0.7
781.8,-0.19,-0.02,-0.04,1.44,-9.65,1.07,6002418.0,0.7
781.91,-0.21,-0.03,-0.03,1.45,-9.66,1.07,6002436.0,0.7
782.02,-0.23,-0.04,-0.04,1.46,-9.66,1.08,6002364.0,0.7
782.12,-0.24,-0.05,-0.06,1.47,-9.65,1.09,6002338.0,0.7
782.23,-0.21,-0.07,-0.06,1.46,-9.64,1.08,6002332.0,0.7
782.34,-0.19,-0.09,-0.04,1.46,-9.62,1.09,6002286.0,0.7
782.45,-0.19,-0.1,-0.0,1.46,-9.62,1.07,6002274.0,0.7
782.55,-0.16,-0.08,0.03,1.45,-9.62,1.06,6002268.0,0.7
782.66,-0.11,-0.06,0.03,1.43,-9.64,1.06,6002294.0,0.7
782.77,-0.09,-0.07,-0.01,1.41,-9.65,1.07,6002382.0,0.7
782.88,-0.09,-0.1,-0.04,1.42,-9.66,1.09,6002514.0,0.7
782.98,-0.11,-0.11,-0.05,1.44,-9.65,1.11,6002847.0,0.7
783.09,-0.14,-0.1,-0.05,1.46,-9.64,1.14,6003022.0,0.7
783.2,-0.17,-0.08,-0.06,1.47,-9.64,1.15,6003230.0,0.7
783.31,-0.19,-0.07,-0.06,1.48,-9.63,1.14,6003392.0,0.7
783.42,-0.18,-0.04,-0.05,1.47,-9.63,1.12,6003464.0,0.7
783.52,-0.17,-0.02,-0.06,1.46,-9.62,1.11,6003503.0,0.7
783.63,-0.15,0.03,-0.1,1.46,-9.62,1.1,6003501.0,0.7
783.74,-0.13,0.04,-0.13,1.45,-9.61,1.09,6003451.0,0.7
783.85,-0.15,0.01,-0.13,1.45,-9.6,1.09,6003386.0,0.7
783.96,-0.16,-0.03,-0.11,1.45,-9.62,1.1,6003293.0,0.7
784.06,-0.14,-0.04,-0.07,1.46,-9.63,1.11,6003270.0,0.7
784.17,-0.12,-0.03,-0.03,1.46,-9.64,1.13,6003310.0,0.7
784.28,-0.16,-0.0,-0.0,1.46,-9.64,1.14,6003459.0,0.7
784.39,-0.2,0.03,0.01,1.46,-9.65,1.14,6003512.0,0.7
784.49,-0.21,0.05,0.02,1.46,-9.65,1.12,6003566.0,0.7
784.6,-0.19,0.04,0.0,1.45,-9.64,1.1,6003644.0,0.7
784.71,-0.17,0.0,-0.03,1.45,-9.64,1.08,6003756.0,0.7
784.82,-0.16,-0.02,-0.04,1.45,-9.64,1.08,6003841.0,0.7
784.92,-0.16,-0.02,-0.02,1.46,-9.63,1.08,6004012.0,0.7
785.03,-0.16,-0.0,-0.0,1.46,-9.62,1.07,6004134.0,0.7
785.14,-0.17,0.01,-0.0,1.45,-9.62,1.07,6004214.0,0.7
785.25,-0.16,0.01,-0.02,1.44,-9.61,1.07,6004261.0,0.7
785.35,-0.14,0.01,-0.01,1.43,-9.61,1.06,6004302.0,0.7
785.46,-0.14,0.02,0.01,1.43,-9.61,1.07,6004342.0,0.7
785.57,-0.17,0.02,0.03,1.44,-9.62,1.07,6004284.0,0.7
785.68,-0.21,-0.01,0.02,1.45,-9.63,1.08,6004253.0,0.7
785.78,-0.22,-0.05,-0.0,1.45,-9.65,1.1,6004231.0,0.7
785.89,-0.22,-0.06,-0.02,1.44,-9.67,1.11,6004228.0,0.7
786.0,-0.2,-0.05,-0.01,1.43,-9.67,1.11,6004257.0,0.7
786.11,-0.17,-0.03,0.0,1.43,-9.67,1.11,6004251.0,0.7
786.21,-0.15,0.0,0.01,1.43,-9.68,1.12,6004286.0,0.7
786.32,-0.16,0.02,-0.01,1.42,-9.68,1.13,6004335.0,0.7
786.43,-0.18,0.01,-0.01,1.43,-9.68,1.11,6004314.0,0.7
786.54,-0.2,-0.0,-0.01,1.43,-9.67,1.1,6004317.0,0.7
786.65,-0.21,-0.01,-0.01,1.43,-9.65,1.09,6004344.0,0.7
786.75,-0.2,-0.01,-0.02,1.42,-9.63,1.08,6004360.0,0.7
786.86,-0.2,-0.01,-0.05,1.43,-9.63,1.08,6004384.0,0.7
786.97,-0.19,-0.02,-0.06,1.43,-9.63,1.09,6004378.0,0.7
787.08,-0.18,-0.04,-0.06,1.43,-9.64,1.1,6004365.0,0.7
787.18,-0.18,-0.04,-0.04,1.44,-9.64,1.11,6004403.0,0.7
787.29,-0.19,-0.03,-0.03,1.45,-9.65,1.11,6004440.0,0.7
787.4,-0.18,-0.01,-0.01,1.45,-9.66,1.11,6004463.0,0.7
787.51,-0.16,0.02,-0.03,1.45,-9.67,1.09,6004560.0,0.7
787.61,-0.16,0.05,-0.05,1.45,-9.67,1.09,6004547.0,0.7
787.72,-0.2,0.07,-0.04,1.44,-9.67,1.09,6004484.0,0.7
787.83,-0.22,0.08,-0.02,1.44,-9.66,1.11,6004466.0,0.7
787.94,-0.23,0.1,-0.01,1.44,-9.65,1.12,6004549.0,0.7
788.04,-0.2,0.1,-0.04,1.46,-9.64,1.12,6004575.0,0.7
788.15,-0.17,0.05,-0.05,1.47,-9.63,1.12,6004672.0,0.7
788.26,-0.14,0.01,-0.04,1.47,-9.64,1.12,6004395.0,0.7
788.37,-0.14,-0.01,-0.03,1.47,-9.65,1.12,6001318.0,0.7
788.47,-0.13,-0.03,-0.05,1.47,-9.66,1.12,5998911.0,0.7
788.58,-0.18,-0.01,-0.27,1.49,-9.65,1.12,5999667.0,0.7
788.69,-0.4,-0.0,-0.9,1.5,-9.58,1.12,6001772.0,0.7
788.81,-1.61,-0.89,-1.47,0.9,-9.0,0.95,5633170.0,0.7
788.91,-3.45,-2.5,-1.18,-0.28,-8.01,0.66,5079603.0,0.7
789.02,-4.01,-3.17,-0.38,-0.8,-7.62,0.53,4839451.0,0.7
789.13,-2.99,-2.51,0.26,-0.33,-8.09,0.65,4921583.0,0.7
789.24,-1.71,-1.5,0.57,0.39,-8.75,0.82,5301107.0,0.7
789.34,-0.73,-0.68,0.64,1.0,-9.26,0.96,5586080.0,0.7
789.45,-0.21,-0.23,0.6,1.36,-9.54,1.04,5745000.0,0.7
789.56,-0.1,-0.1,0.5,1.5,-9.64,1.07,5870682.0,0.7
789.66,-0.11,-0.05,0.29,1.55,-9.67,1.08,5895977.0,0.7
789.77,-0.12,0.03,-0.02,1.56,-9.69,1.09,5848097.0,0.7
789.88,-0.13,0.11,-0.25,1.53,-9.7,1.09,5774855.0,0.7
789.99,-0.13,0.15,-0.22,1.5,-9.68,1.09,5656741.0,0.7
790.09,0.42,-0.05,0.25,1.31,-10.12,1.06,5600348.0,0.7
790.2,1.55,-0.49,0.93,0.92,-11.08,0.98,5636338.0,0.7
790.31,2.08,-0.71,1.15,0.74,-11.53,0.94,5546458.0,0.7
790.42,1.77,-0.56,0.86,0.87,-11.23,0.94,5332933.0,0.7
790.52,1.04,-0.3,0.42,1.1,-10.66,0.97,5218411.0,0.7
790.63,0.3,-0.09,0.06,1.33,-10.11,1.0,5069055.0,0.7
790.74,-0.08,0.05,-0.18,1.5,-9.8,1.03,4943897.0,0.7
790.85,-0.24,0.13,-0.33,1.6,-9.63,1.05,4974119.0,0.7
790.95,-0.28,0.06,-0.3,1.6,-9.54,1.05,4923279.0,0.7
791.06,-0.12,-0.44,-0.08,1.37,-9.59,1.0,4789639.0,0.7
791.17,0.14,-1.21,0.19,0.99,-9.71,0.92,4722252.0,0.7
791.28,0.22,-1.47,0.26,0.83,-9.76,0.91,4775858.0,0.7
791.38,0.43,-1.21,-0.29,0.93,-9.96,0.95,4972739.0,0.7
791.49,1.06,-1.03,-1.1,1.04,-10.44,0.99,4945363.0,0.7
791.6,1.41,-1.0,-1.19,1.07,-10.65,1.0,4900711.0,0.7
791.71,1.14,-0.86,-0.69,1.12,-10.44,1.02,4888151.0,0.7
791.81,0.66,-0.6,-0.26,1.23,-10.12,1.04,5077332.0,0.7
791.92,0.21,-0.37,-0.07,1.34,-9.86,1.05,5054764.0,0.7
792.03,-0.07,-0.17,-0.02,1.43,-9.68,1.07,4775844.0,0.7
792.14,-0.28,0.0,-0.34,1.51,-9.59,1.09,4841091.0,0.7
792.24,-0.5,0.1,-0.93,1.55,-9.54,1.09,4825058.0,0.7
792.35,-0.63,0.08,-1.34,1.57,-9.53,1.09,4504292.0,0.7
792.46,-0.66,-0.03,-1.54,1.55,-9.56,1.07,4268750.0,0.7
792.57,-0.59,-0.17,-1.41,1.5,-9.58,1.05,4173811.0,0.7
792.67,-0.43,-0.18,-0.82,1.46,-9.58,1.04,3895511.0,0.7
792.78,-0.3,0.01,-0.3,1.46,-9.58,1.03,3611068.0,0.7
792.89,-0.16,0.1,-0.17,1.48,-9.64,1.02,3566837.0,0.7
793.0,-0.06,0.05,-0.12,1.49,-9.67,1.01,3404831.0,0.7
793.1,0.01,0.04,0.08,1.52,-9.66,1.02,3153329.0,0.7
793.21,0.05,0.06,0.14,1.55,-9.67,1.04,2999513.0,0.7
793.32,-0.11,1.03,0.02,1.77,-9.57,1.11,2950643.0,0.7
793.43,-0.75,3.67,0.06,2.41,-9.18,1.28,2861652.0,0.7
793.53,-1.58,5.79,0.2,3.15,-8.72,1.45,2995447.0,0.7
793.64,-1.91,5.64,0.06,3.48,-8.57,1.51,2978055.0,0.7
793.75,-1.56,3.96,-0.11,3.24,-8.76,1.45,2789484.0,0.7
793.85,-0.92,1.93,-0.11,2.64,-9.09,1.31,2473028.0,0.7
793.96,-0.42,0.35,-0.22,2.01,-9.4,1.16,2488604.0,0.7
794.07,-0.17,-0.44,-0.34,1.6,-9.6,1.06,2325366.0,0.7
794.17,-0.07,-0.6,-0.33,1.45,-9.68,1.01,2185323.0,0.7
794.28,-0.07,-0.42,-0.27,1.45,-9.69,0.99,2088086.0,0.7
794.39,-0.11,-0.13,-0.2,1.52,-9.67,0.99,2010693.0,0.7
794.5,-0.13,0.07,-0.14,1.6,-9.65,0.99,1944115.0,0.7
794.6,-0.16,0.12,-0.13,1.65,-9.62,0.99,1894110.0,0.7
794.71,-0.21,0.08,-0.22,1.67,-9.6,0.99,1771743.0,0.7
794.82,-0.25,-0.01,-0.33,1.68,-9.6,1.0,1714511.0,0.7
794.93,-0.22,-0.1,-0.33,1.68,-9.6,1.02,1588940.0,0.7
795.03,-0.18,-0.14,-0.26,1.7,-9.61,1.03,1407703.0,0.7
795.14,-0.15,-0.12,-0.2,1.7,-9.62,1.03,1372811.0,0.7
795.25,-0.14,-0.08,-0.12,1.68,-9.63,1.03,1325811.0,0.7
795.36,-0.14,-0.03,-0.04,1.67,-9.62,1.03,1263274.0,0.7
795.46,-0.15,0.0,-0.03,1.66,-9.61,1.05,1244529.0,0.7
795.57,-0.21,0.15,-0.04,1.72,-9.56,1.07,1269250.0,0.7
795.68,-0.27,0.25,-0.08,1.82,-9.5,1.1,1206471.0,0.7
795.79,-0.21,0.06,-0.15,1.79,-9.49,1.09,1176034.0,0.7
795.89,-0.12,-0.12,-0.16,1.67,-9.53,1.05,1174675.0,0.7
796.0,-0.11,-0.03,-0.11,1.65,-9.55,1.03,1174944.0,0.7
796.11,-0.12,0.05,-0.07,1.68,-9.57,1.04,1159836.0,0.7
796.22,-0.12,0.0,-0.06,1.69,-9.59,1.05,1169945.0,0.7
796.32,-0.11,-0.06,-0.06,1.68,-9.61,1.05,1161877.0,0.7
796.43,-0.13,-0.07,-0.03,1.67,-9.61,1.03,1162570.0,0.7
796.54,-0.15,-0.09,-0.0,1.66,-9.61,1.01,1165924.0,0.7
796.65,-0.16,-0.11,-0.01,1.65,-9.61,1.01,1157014.0,0.7
796.75,-0.17,-0.11,-0.03,1.66,-9.61,1.02,1154360.0,0.7
796.87,-0.19,-0.08,-0.06,1.67,-9.61,1.03,1165013.0,0.7
796.97,-0.2,-0.04,-0.1,1.67,-9.61,1.03,1154781.0,0.7
797.08,-0.2,0.01,-0.13,1.68,-9.61,1.02,1158588.0,0.7
797.19,-0.19,0.02,-0.13,1.69,-9.6,1.01,1157991.0,0.7
797.3,-0.17,-0.02,-0.08,1.7,-9.6,1.01,1160359.0,0.7
797.41,-0.15,-0.06,-0.02,1.7,-9.6,1.03,1148928.0,0.7
797.51,-0.15,-0.08,0.02,1.7,-9.61,1.04,1159318.0,0.7
797.62,-0.16,-0.07,0.03,1.7,-9.62,1.05,1149143.0,0.7
797.73,-0.15,-0.05,0.03,1.71,-9.63,1.05,1155995.0,0.7
797.84,-0.12,-0.0,0.02,1.7,-9.63,1.04,1152941.0,0.7
797.94,-0.12,0.03,0.02,1.69,-9.62,1.02,1155747.0,0.7
798.05,-0.15,0.04,0.02,1.68,-9.61,1.01,1146184.0,0.7
798.16,-0.15,0.03,0.0,1.69,-9.61,1.01,1155134.0,0.7
798.27,-0.14,0.01,-0.0,1.69,-9.61,1.0,1144311.0,0.7
798.37,-0.1,-0.01,0.01,1.69,-9.61,0.99,1152360.0,0.7
798.48,-0.07,-0.01,0.02,1.68,-9.62,0.97,1146394.0,0.7
798.59,-0.08,0.01,0.01,1.68,-9.61,0.98,1149329.0,0.7
798.7,-0.11,0.02,0.01,1.68,-9.6,1.0,1143304.0,0.7
798.8,-0.14,-0.0,0.01,1.69,-9.57,1.02,1151105.0,0.7
798.91,-0.15,-0.02,-0.01,1.69,-9.57,1.05,1141886.0,0.7
799.02,-0.14,-0.02,-0.01,1.69,-9.58,1.07,1150754.0,0.7
799.13,-0.14,0.01,-0.01,1.69,-9.59,1.07,1143180.0,0.7
799.23,-0.16,0.04,0.0,1.69,-9.59,1.07,1144828.0,0.7
799.34,-0.17,0.06,0.01,1.69,-9.59,1.06,1141398.0,0.7
799.45,-0.16,0.07,0.0,1.68,-9.59,1.05,1146090.0,0.7
799.55,-0.14,0.07,-0.01,1.67,-9.59,1.03,1138329.0,0.7
799.66,-0.12,0.05,0.0,1.66,-9.61,1.03,1146344.0,0.7
799.77,-0.12,0.01,0.04,1.66,-9.62,1.03,1138094.0,0.7
799.88,-0.13,-0.02,0.05,1.67,-9.62,1.05,1139329.0,0.7
799.99,-0.11,-0.03,0.05,1.68,-9.62,1.05,1139164.0,0.7
800.09,-0.1,-0.06,0.05,1.69,-9.62,1.05,1141843.0,0.7
800.2,-0.1,-0.07,0.04,1.7,-9.61,1.04,1136371.0,0.7
800.31,-0.12,-0.05,0.01,1.7,-9.61,1.03,1143369.0,0.7
800.42,-0.13,-0.02,-0.04,1.7,-9.62,1.02,1135032.0,0.7
800.52,-0.16,-0.0,-0.08,1.7,-9.63,1.03,1141139.0,0.7
800.63,-0.17,-0.01,-0.09,1.7,-9.63,1.03,1136973.0,0.7
800.74,-0.18,-0.01,-0.07,1.7,-9.62,1.01,1136862.0,0.7
800.85,-0.17,-0.01,-0.02,1.7,-9.61,0.99,1133604.0,0.7
800.96,-0.18,-0.04,0.02,1.69,-9.6,0.99,1138537.0,0.7
801.06,-0.2,-0.07,0.05,1.68,-9.59,1.0,1131505.0,0.7
801.17,-0.23,-0.08,0.05,1.67,-9.6,1.0,1137862.0,0.7
801.28,-0.24,-0.08,0.03,1.68,-9.61,0.99,1136206.0,0.7
801.39,-0.24,-0.07,-0.02,1.68,-9.62,0.99,1134514.0,0.7
801.49,-0.21,-0.07,-0.04,1.68,-9.61,0.99,1133759.0,0.7
801.6,-0.18,-0.04,-0.04,1.67,-9.61,1.01,1136317.0,0.7
801.71,-0.16,-0.0,-0.02,1.67,-9.6,1.02,1130512.0,0.7
801.82,-0.14,0.03,-0.01,1.67,-9.59,1.03,1135701.0,0.7
801.92,-0.14,0.02,-0.01,1.67,-9.59,1.03,1134114.0,0.7
802.03,-0.14,-0.01,-0.01,1.68,-9.59,1.02,1130401.0,0.7
802.13,-0.14,-0.02,-0.01,1.67,-9.61,1.02,1131414.0,0.7
802.24,-0.14,-0.02,-0.02,1.66,-9.61,1.03,1131882.0,0.7
802.35,-0.12,-0.03,-0.02,1.66,-9.62,1.03,1128455.0,0.7
802.46,-0.1,-0.05,-0.03,1.66,-9.62,1.03,1133092.0,0.7
802.56,-0.1,-0.07,-0.04,1.68,-9.62,1.03,1133470.0,0.7
802.67,-0.11,-0.07,-0.05,1.69,-9.62,1.03,1128815.0,0.7
802.78,-0.11,-0.04,-0.06,1.68,-9.62,1.02,1131188.0,0.7
802.89,-0.11,0.01,-0.06,1.67,-9.61,1.02,1129435.0,0.7
802.99,-0.11,0.05,-0.04,1.67,-9.61,1.01,1127702.0,0.7
803.1,-0.12,0.07,-0.02,1.67,-9.62,1.02,1130019.0,0.7
803.21,-0.15,0.06,-0.01,1.67,-9.62,1.03,1130378.0,0.7
803.32,-0.17,0.02,-0.0,1.67,-9.61,1.04,1125262.0,0.7
803.42,-0.18,-0.03,-0.01,1.67,-9.6,1.03,1128910.0,0.7
803.53,-0.18,-0.06,-0.02,1.67,-9.6,1.02,1125779.0,0.7
803.64,-0.18,-0.06,-0.03,1.67,-9.62,1.01,1126588.0,0.7
803.75,-0.17,-0.05,-0.02,1.67,-9.63,1.0,1127730.0,0.7
803.86,-0.17,-0.04,0.0,1.68,-9.63,1.0,1129061.0,0.7
803.97,-0.17,-0.01,0.01,1.68,-9.62,1.0,1123938.0,0.7
804.07,-0.16,0.02,0.0,1.68,-9.61,1.01,1127393.0,0.7
804.18,-0.13,0.05,-0.0,1.68,-9.61,1.02,1122973.0,0.7
804.29,-0.13,0.03,0.01,1.67,-9.62,1.02,1124710.0,0.7
804.4,-0.16,-0.02,0.01,1.67,-9.61,1.02,1123972.0,0.7
804.5,-0.17,-0.06,-0.01,1.68,-9.6,1.01,1124989.0,0.7
804.61,-0.15,-0.08,-0.02,1.7,-9.6,1.01,1121006.0,0.7
804.72,-0.13,-0.08,-0.02,1.7,-9.6,1.01,1124722.0,0.7
804.83,-0.13,-0.06,-0.02,1.7,-9.6,1.01,1120716.0,0.7
804.94,-0.14,-0.04,-0.03,1.69,-9.61,1.02,1123996.0,0.7
805.05,-0.13,-0.02,-0.03,1.69,-9.61,1.01,1122489.0,0.7
805.16,-0.11,-0.01,-0.03,1.69,-9.61,1.01,1123303.0,0.7
805.27,-0.11,-0.02,-0.02,1.69,-9.62,1.03,1119402.0,0.7
805.37,-0.13,-0.04,-0.01,1.68,-9.62,1.05,1122416.0,0.7
805.48,-0.17,-0.06,-0.02,1.67,-9.6,1.05,1118299.0,0.7
805.59,-0.21,-0.08,-0.02,1.66,-9.59,1.05,1121403.0,0.7
805.7,-0.22,-0.09,-0.01,1.66,-9.58,1.06,1119726.0,0.7
805.81,-0.18,-0.07,-0.02,1.67,-9.59,1.05,1120136.0,0.7
805.91,-0.15,-0.02,-0.02,1.69,-9.6,1.03,1117813.0,0.7
806.02,-0.13,0.02,-0.03,1.71,-9.6,1.01,1120935.0,0.7
806.13,-0.11,0.02,-0.03,1.72,-9.6,0.99,1117620.0,0.7
806.23,-0.11,0.01,-0.03,1.72,-9.61,0.98,1121347.0,0.7
806.34,-0.11,0.02,-0.04,1.7,-9.61,0.98,1118540.0,0.7
806.45,-0.12,0.02,-0.04,1.68,-9.61,1.0,1118608.0,0.7
806.56,-0.12,0.02,-0.03,1.67,-9.6,1.03,1117132.0,0.7
806.66,-0.1,0.02,-0.01,1.67,-9.59,1.05,1118804.0,0.7
806.77,-0.11,-0.0,-0.0,1.67,-9.59,1.06,1115704.0,0.7
806.88,-0.12,-0.02,-0.01,1.67,-9.59,1.06,1118942.0,0.7
806.99,-0.12,-0.01,-0.03,1.67,-9.58,1.06,1115422.0,0.7
807.09,-0.12,0.02,-0.04,1.67,-9.58,1.05,1115960.0,0.7
807.2,-0.13,0.02,-0.03,1.67,-9.58,1.04,1116338.0,0.7
807.31,-0.13,-0.02,-0.01,1.67,-9.59,1.04,1117651.0,0.7
807.42,-0.12,-0.08,0.02,1.68,-9.6,1.03,1115732.0,0.7
807.53,-0.1,-0.11,0.04,1.68,-9.62,1.02,1118551.0,0.7
807.63,-0.12,-0.08,0.03,1.69,-9.62,1.01,1114914.0,0.7
807.74,-0.16,-0.05,0.0,1.68,-9.61,1.01,1114202.0,0.7
807.85,-0.19,-0.02,-0.01,1.68,-9.6,1.01,1115284.0,0.7
807.96,-0.19,0.01,-0.01,1.68,-9.59,1.01,1114967.0,0.7
808.07,-0.18,0.04,-0.02,1.69,-9.6,1.01,1113553.0,0.7
808.18,-0.14,0.04,-0.04,1.68,-9.61,1.01,1115523.0,0.7
808.28,-0.11,0.02,-0.05,1.67,-9.62,1.03,1115100.0,0.7
808.39,-0.09,0.02,-0.05,1.67,-9.63,1.04,1112323.0,0.7
808.5,-0.09,0.02,-0.08,1.68,-9.63,1.04,1114519.0,0.7
808.61,-0.12,0.01,-0.1,1.69,-9.62,1.02,1113856.0,0.7
808.72,-0.14,0.0,-0.09,1.69,-9.61,1.01,1113282.0,0.7
808.82,-0.15,-0.0,-0.06,1.68,-9.6,0.99,1114311.0,0.7
808.93,-0.14,-0.01,-0.03,1.67,-9.59,0.98,1113643.0,0.7
809.04,-0.15,-0.01,-0.02,1.67,-9.59,0.97,1110521.0,0.7
809.15,-0.18,-0.02,-0.02,1.67,-9.6,0.97,1112851.0,0.7
809.25,-0.2,-0.03,-0.03,1.67,-9.61,0.98,1111303.0,0.7
809.36,-0.21,-0.07,-0.04,1.67,-9.61,0.98,1111586.0,0.7
809.47,-0.19,-0.09,-0.03,1.67,-9.61,0.98,1111970.0,0.7
809.58,-0.14,-0.08,-0.02,1.66,-9.6,0.97,1112658.0,0.7
809.68,-0.1,-0.05,-0.01,1.66,-9.6,0.97,1110465.0,0.7
809.79,-0.1,-0.04,0.01,1.64,-9.6,0.98,1112938.0,0.7
809.9,-0.11,-0.03,0.02,1.64,-9.61,1.0,1110945.0,0.7
810.01,-0.12,0.01,0.0,1.66,-9.61,1.01,1111649.0,0.7
810.12,-0.12,0.05,-0.02,1.68,-9.62,1.02,1110802.0,0.7
810.22,-0.1,0.05,-0.03,1.69,-9.63,1.02,1110750.0,0.7
810.33,-0.07,0.03,-0.03,1.69,-9.62,1.01,1108765.0,0.7
810.44,-0.06,-0.01,-0.01,1.7,-9.6,1.01,1110669.0,0.7
810.55,-0.06,-0.03,-0.0,1.7,-9.59,1.02,1108484.0,0.7
810.66,-0.08,-0.04,-0.01,1.71,-9.57,1.02,1109843.0,0.7
810.76,-0.1,-0.05,-0.01,1.7,-9.57,1.03,1108751.0,0.7
810.87,-0.12,-0.03,0.0,1.7,-9.57,1.03,1108968.0,0.7
810.98,-0.14,0.02,-0.0,1.69,-9.59,1.02,1108834.0,0.7
811.09,-0.15,0.07,-0.01,1.69,-9.61,1.01,1110296.0,0.7
811.2,-0.14,0.08,0.01,1.69,-9.62,1.0,1107930.0,0.7
811.3,-0.12,0.04,0.03,1.69,-9.62,0.99,1109167.0,0.7
811.41,-0.1,-0.01,0.04,1.69,-9.63,1.0,1107262.0,0.7
811.52,-0.08,-0.06,0.05,1.69,-9.63,1.02,1107746.0,0.7
811.63,-0.06,-0.07,0.07,1.69,-9.63,1.03,1106869.0,0.7
811.74,-0.06,-0.07,0.08,1.68,-9.62,1.05,1107920.0,0.7
811.84,-0.07,-0.09,0.09,1.68,-9.62,1.06,1106076.0,0.7
811.95,-0.08,-0.1,0.08,1.69,-9.61,1.05,1107578.0,0.7
812.06,-0.1,-0.08,0.04,1.69,-9.6,1.03,1106228.0,0.7
812.16,-0.14,-0.04,0.01,1.69,-9.59,1.0,1107224.0,0.7
812.27,-0.18,-0.03,-0.01,1.69,-9.59,0.98,1106855.0,0.7
812.38,-0.18,-0.01,-0.01,1.69,-9.6,1.0,1107162.0,0.7
812.49,-0.16,-0.02,0.01,1.68,-9.61,1.02,1105499.0,0.7
812.6,-0.16,-0.03,0.02,1.67,-9.61,1.04,1106438.0,0.7
812.7,-0.14,-0.04,0.03,1.67,-9.61,1.06,1104903.0,0.7
812.81,-0.12,-0.03,0.04,1.67,-9.61,1.07,1105113.0,0.7
812.92,-0.09,-0.02,0.04,1.68,-9.6,1.07,1105269.0,0.7
813.03,-0.07,-0.01,0.02,1.68,-9.58,1.07,1105285.0,0.7
813.13,-0.08,-0.01,-0.01,1.66,-9.58,1.07,1104521.0,0.7
813.24,-0.11,-0.02,-0.05,1.66,-9.58,1.05,1105682.0,0.7
813.35,-0.16,-0.01,-0.06,1.66,-9.58,1.03,1104766.0,0.7
813.46,-0.2,-0.0,-0.04,1.66,-9.58,1.03,1106168.0,0.7
813.56,-0.2,0.0,-0.01,1.66,-9.57,1.04,1105080.0,0.7
813.67,-0.18,0.0,0.04,1.66,-9.58,1.05,1104270.0,0.7
813.78,-0.17,0.01,0.06,1.68,-9.59,1.05,1103537.0,0.7
813.89,-0.16,0.02,0.06,1.69,-9.6,1.03,1104035.0,0.7
813.99,-0.15,0.02,0.04,1.7,-9.61,1.01,1102937.0,0.7
814.1,-0.15,-0.01,0.0,1.7,-9.61,1.0,1103998.0,0.7
814.21,-0.16,-0.04,-0.03,1.71,-9.6,1.01,1103157.0,0.7
814.32,-0.14,-0.06,-0.04,1.71,-9.59,1.01,1102579.0,0.7
814.42,-0.13,-0.04,-0.03,1.71,-9.59,1.03,1102724.0,0.7
814.53,-0.11,0.02,-0.04,1.7,-9.59,1.05,1103379.0,0.7
814.64,-0.12,0.07,-0.07,1.7,-9.6,1.05,1102782.0,0.7
814.75,-0.12,0.09,-0.07,1.7,-9.61,1.04,1103543.0,0.7
814.86,-0.11,0.09,-0.04,1.69,-9.61,1.03,1102403.0,0.7
814.97,-0.09,0.07,-0.01,1.68,-9.62,1.03,1101257.0,0.7
815.07,-0.09,0.05,-0.02,1.68,-9.63,1.04,1101388.0,0.7
815.18,-0.1,0.04,-0.04,1.67,-9.62,1.03,1101343.0,0.7
815.28,-0.13,0.02,-0.05,1.66,-9.63,1.02,1100868.0,0.7
815.39,-0.15,-0.01,-0.04,1.66,-9.63,1.02,1101423.0,0.7
815.5,-0.16,-0.03,-0.02,1.67,-9.61,1.03,1101332.0,0.7
815.61,-0.16,-0.04,-0.03,1.68,-9.6,1.04,1100717.0,0.7
815.72,-0.14,-0.02,-0.05,1.68,-9.6,1.05,1101734.0,0.7
815.82,-0.12,0.01,-0.05,1.66,-9.61,1.05,1101499.0,0.7
815.93,-0.09,0.02,-0.03,1.66,-9.62,1.02,1101425.0,0.7
816.04,-0.09,0.02,0.01,1.67,-9.62,1.01,1101281.0,0.7
816.15,-0.1,-0.01,0.02,1.67,-9.61,1.01,1100715.0,0.7
816.26,-0.11,-0.06,0.02,1.67,-9.6,1.0,1099681.0,0.7
816.37,-0.1,-0.09,0.01,1.67,-9.59,0.99,1100597.0,0.7
816.47,-0.09,-0.08,0.01,1.66,-9.59,0.98,1099534.0,0.7
816.58,-0.08,-0.07,-0.01,1.66,-9.6,0.99,1099938.0,0.7
816.69,-0.08,-0.07,-0.05,1.67,-9.61,1.01,1099715.0,0.7
816.8,-0.09,-0.06,-0.07,1.67,-9.62,1.03,1100123.0,0.7
816.91,-0.09,-0.05,-0.07,1.67,-9.62,1.03,1099320.0,0.7
817.01,-0.08,-0.02,-0.04,1.67,-9.61,1.03,1100499.0,0.7
817.12,-0.07,0.02,0.01,1.66,-9.6,1.03,1099369.0,0.7
817.23,-0.08,0.06,0.05,1.65,-9.6,1.04,1099652.0,0.7
817.34,-0.1,0.09,0.08,1.67,-9.6,1.04,1098907.0,0.7
817.44,-0.11,0.11,0.09,1.69,-9.6,1.04,1098792.0,0.7
817.55,-0.11,0.1,0.09,1.69,-9.6,1.03,1097474.0,0.7
817.66,-0.12,0.06,0.07,1.69,-9.6,1.01,1098614.0,0.7
817.77,-0.15,-0.01,0.04,1.67,-9.62,0.98,1097288.0,0.7
817.87,-0.15,-0.1,0.02,1.67,-9.63,0.97,1097867.0,0.7
817.98,-0.14,-0.15,0.01,1.67,-9.62,0.98,1097417.0,0.7
818.09,-0.14,-0.15,-0.01,1.67,-9.61,0.99,1098339.0,0.7
818.2,-0.17,-0.13,-0.04,1.66,-9.59,0.99,1097325.0,0.7
818.3,-0.2,-0.11,-0.04,1.66,-9.59,1.01,1098326.0,0.7
818.41,-0.22,-0.07,-0.04,1.67,-9.59,1.02,1096763.0,0.7
818.52,-0.19,-0.04,-0.04,1.67,-9.59,1.02,1097131.0,0.7
818.63,-0.14,-0.01,-0.03,1.68,-9.59,1.02,1096119.0,0.7
818.73,-0.1,0.01,-0.01,1.68,-9.59,1.0,1096086.0,0.7
818.84,-0.09,0.03,0.02,1.69,-9.6,0.99,1095307.0,0.7
818.95,-0.1,0.03,0.04,1.68,-9.6,0.99,1095890.0,0.7
819.06,-0.14,0.02,0.07,1.68,-9.61,1.01,1094541.0,0.7
819.17,-0.17,-0.01,0.07,1.68,-9.6,1.03,1095421.0,0.7
819.28,-0.18,-0.03,0.04,1.68,-9.59,1.05,1094808.0,0.7
819.38,-0.18,-0.02,-0.0,1.7,-9.59,1.04,1095515.0,0.7
819.49,-0.18,-0.01,-0.03,1.71,-9.58,1.03,1094974.0,0.7
819.6,-0.18,-0.03,-0.04,1.72,-9.58,1.03,1095034.0,0.7
819.71,-0.17,-0.03,-0.03,1.71,-9.59,1.03,1093694.0,0.7
819.81,-0.16,-0.03,-0.04,1.69,-9.59,1.03,1094201.0,0.7
819.92,-0.15,-0.03,-0.03,1.68,-9.59,1.02,1093224.0,0.7
820.03,-0.14,-0.03,-0.02,1.68,-9.6,1.01,1093729.0,0.7
820.14,-0.12,-0.05,-0.02,1.69,-9.61,1.01,1093809.0,0.7
820.24,-0.12,-0.09,-0.02,1.69,-9.62,1.02,1093709.0,0.7
820.35,-0.14,-0.11,-0.02,1.68,-9.62,1.03,1093105.0,0.7
820.46,-0.16,-0.08,-0.01,1.67,-9.62,1.03,1093631.0,0.7
820.57,-0.17,-0.04,0.0,1.66,-9.62,1.04,1092783.0,0.7
820.68,-0.15,0.01,0.01,1.66,-9.61,1.03,1091652.0,0.7
820.78,-0.12,0.04,0.02,1.65,-9.6,1.01,1091124.0,0.7
820.89,-0.1,0.04,0.01,1.65,-9.6,1.0,1090593.0,0.7
821.0,-0.09,0.02,-0.02,1.67,-9.6,1.0,1089579.0,0.7
821.1,-0.11,0.0,-0.04,1.68,-9.61,1.01,1089866.0,0.7
821.21,-0.13,-0.01,-0.07,1.69,-9.62,1.02,1088975.0,0.7
821.32,-0.14,-0.02,-0.09,1.69,-9.62,1.02,1088639.0,0.7
821.43,-0.14,-0.02,-0.08,1.68,-9.63,1.01,1088804.0,0.7
821.53,-0.15,-0.05,-0.06,1.68,-9.64,0.99,1088887.0,0.7
821.64,-0.17,-0.07,-0.03,1.69,-9.63,0.98,1089053.0,0.7
821.75,-0.18,-0.06,-0.02,1.7,-9.62,0.97,1089753.0,0.7
821.86,-0.19,-0.04,-0.02,1.7,-9.61,0.99,1089676.0,0.7
821.97,-0.18,-0.03,-0.02,1.69,-9.61,1.01,1089782.0,0.7
822.08,-0.17,-0.02,0.0,1.67,-9.62,1.02,1089915.0,0.7
822.19,-0.17,-0.02,0.01,1.65,-9.61,1.03,1089474.0,0.7
822.29,-0.19,-0.01,0.02,1.65,-9.6,1.04,1089370.0,0.7
822.4,-0.2,-0.02,0.03,1.66,-9.6,1.05,1089653.0,0.7
822.51,-0.19,-0.02,0.04,1.67,-9.61,1.05,1089376.0,0.7
822.61,-0.17,-0.02,0.03,1.67,-9.62,1.04,1089742.0,0.7
822.72,-0.14,-0.03,0.01,1.67,-9.63,1.03,1090690.0,0.7
822.83,-0.12,-0.02,-0.01,1.66,-9.64,1.01,1091168.0,0.7
822.94,-0.12,-0.0,-0.03,1.66,-9.64,1.01,1092157.0,0.7
823.05,-0.12,0.01,-0.03,1.66,-9.62,1.01,1092431.0,0.7
823.15,-0.13,0.01,-0.03,1.68,-9.61,1.02,1092095.0,0.7
823.26,-0.15,-0.01,-0.02,1.69,-9.61,1.02,1092009.0,0.7
823.37,-0.15,-0.03,-0.04,1.71,-9.62,1.02,1092468.0,0.7
823.47,-0.14,-0.05,-0.07,1.71,-9.61,1.02,1092041.0,0.7
823.58,-0.14,-0.07,-0.09,1.71,-9.61,1.01,1092286.0,0.7
823.69,-0.12,-0.08,-0.09,1.69,-9.61,1.0,1091970.0,0.7
823.8,-0.13,-0.07,-0.08,1.68,-9.61,1.0,1091724.0,0.7
823.91,-0.15,-0.05,-0.07,1.69,-9.62,1.01,1091783.0,0.7
824.01,-0.15,-0.03,-0.04,1.69,-9.62,1.02,1092500.0,0.7
824.12,-0.14,-0.03,-0.0,1.69,-9.62,1.02,1092316.0,0.7
824.23,-0.12,-0.03,0.03,1.69,-9.61,1.02,1092855.0,0.7
824.34,-0.14,-0.04,0.02,1.67,-9.6,1.03,1092673.0,0.7
824.45,-0.18,-0.05,0.01,1.67,-9.58,1.04,1092459.0,0.7
824.55,-0.19,-0.04,0.01,1.67,-9.56,1.06,1091608.0,0.7
824.66,-0.18,-0.02,0.03,1.67,-9.58,1.05,1091854.0,0.7
824.77,-0.17,-0.0,0.03,1.68,-9.6,1.04,1091707.0,0.7
824.87,-0.15,0.01,0.03,1.7,-9.62,1.02,1092188.0,0.7
824.98,-0.12,0.02,0.03,1.7,-9.63,1.02,1091919.0,0.7
825.09,-0.09,-0.01,0.03,1.7,-9.64,1.02,1092129.0,0.7
825.2,-0.08,-0.03,0.01,1.68,-9.64,1.01,1092538.0,0.7
825.3,-0.09,-0.02,-0.04,1.66,-9.64,1.02,1093019.0,0.7
825.41,-0.11,0.0,-0.08,1.66,-9.64,1.04,1092961.0,0.7
825.52,-0.14,0.03,-0.07,1.66,-9.63,1.05,1093467.0,0.7
825.63,-0.16,0.05,-0.05,1.67,-9.62,1.05,1092997.0,0.7
825.73,-0.14,0.06,-0.06,1.68,-9.61,1.05,1093284.0,0.7
825.84,-0.12,0.04,-0.09,1.69,-9.61,1.04,1093176.0,0.7
825.95,-0.11,-0.0,-0.1,1.7,-9.61,1.03,1093346.0,0.7
826.06,-0.12,-0.05,-0.09,1.69,-9.61,1.03,1093224.0,0.7
826.16,-0.12,-0.08,-0.08,1.68,-9.62,1.03,1093626.0,0.7
826.27,-0.1,-0.08,-0.08,1.68,-9.61,1.02,1093656.0,0.7
826.38,-0.09,-0.05,-0.04,1.67,-9.61,1.01,1094659.0,0.7
826.49,-0.11,-0.05,-0.01,1.68,-9.6,1.0,1096549.0,0.7
826.59,-0.13,-0.06,0.01,1.69,-9.59,0.99,1097243.0,0.7
826.7,-0.14,-0.05,0.01,1.7,-9.59,0.99,1097362.0,0.7
826.81,-0.14,-0.03,-0.02,1.71,-9.59,1.01,1097182.0,0.7
826.92,-0.14,-0.01,-0.04,1.7,-9.59,1.02,1097011.0,0.7
827.02,-0.15,-0.01,-0.05,1.7,-9.6,1.02,1097215.0,0.7
827.14,-0.16,-0.04,-0.04,1.7,-9.62,1.03,1096939.0,0.7
827.24,-0.17,-0.05,-0.0,1.7,-9.62,1.03,1096825.0,0.7
827.35,-0.17,-0.05,0.02,1.68,-9.61,1.03,1096557.0,0.7
827.46,-0.17,-0.07,0.02,1.66,-9.6,1.03,1096738.0,0.7
827.56,-0.18,-0.09,-0.0,1.65,-9.6,1.02,1096837.0,0.7
827.67,-0.17,-0.09,-0.01,1.64,-9.61,1.01,1097173.0,0.7
827.78,-0.14,-0.06,-0.01,1.65,-9.61,1.02,1097709.0,0.7
827.89,-0.12,-0.03,-0.02,1.66,-9.6,1.04,1097301.0,0.7
827.99,-0.13,-0.02,-0.03,1.66,-9.59,1.05,1096828.0,0.7
828.1,-0.14,-0.03,-0.04,1.66,-9.59,1.04,1095993.0,0.7
828.21,-0.15,-0.06,-0.05,1.66,-9.6,1.03,1095491.0,0.7
